Data from green_paint_Reflection_002.txt Node
Date: Tue Nov 21 14:23:54 AEST 2023
User: uqkchene_local
Spectrometer: USB4E02642
Trigger mode: 4
Integration Time (sec): 7.600000E-2
Scans to average: 10
Electric dark correction enabled: true
Nonlinearity correction enabled: false
Boxcar width: 10
XAxis mode: Wavelengths
Number of Pixels in Spectrum: 3648
>>>>>Begin Spectral Data<<<<<
179.217	60.30651341
179.432	3.36538462
179.647	22.00088535
179.862	9.5970696
180.077	104.44444444
180.293	5.47263682
180.508	64.93256262
180.723	103.92156863
180.938	-2153.33333335
181.153	-655.91397849
181.368	-2887.0967742
181.583	-468.50393701
181.798	165.77181208
182.013	56.37149028
182.228	-39.17710197
182.443	31.02505695
182.658	47.36842105
182.873	36.13220188
183.088	22.20054623
183.303	30.26862365
183.518	13.21855851
183.733	12.89138415
183.948	12.6707842
184.162	24.98802491
184.377	29.48661045
184.592	26.57056416
184.807	18.1115315
185.022	16.43672288
185.237	19.37794863
185.452	35.02257172
185.667	48.45665337
185.882	52.37017122
186.096	56.00384246
186.311	49.42499031
186.526	53.77448966
186.741	59.02930167
186.956	63.58966611
187.17	65.02188019
187.385	64.58989456
187.6	75.28968309
187.815	84.08034777
188.03	90.4899552
188.244	95.67208972
188.459	94.10358566
188.674	98.45835683
188.889	101.58568815
189.103	103.76729455
189.318	115.13192382
189.533	119.29379963
189.747	110.95059747
189.962	110.56894108
190.177	111.88607311
190.391	111.37211855
190.606	106.4820777
190.821	107.16587678
191.035	95.07680918
191.25	103.25298844
191.465	100.88888889
191.679	92.40103441
191.894	91.53794493
192.109	92.79516171
192.323	96.52399481
192.538	90.33841385
192.752	75.01688049
192.967	90.13630731
193.181	79.16199866
193.396	75.77792702
193.611	77.74744027
193.825	76.69465493
194.04	75.35324629
194.254	69.61060481
194.469	73.83563821
194.683	73.50899561
194.898	63.27415639
195.112	56.70672745
195.327	44.45354744
195.541	49.56994115
195.756	47.62113893
195.97	49.37385676
196.184	59.06757319
196.399	57.17682393
196.613	59.62484273
196.828	55.23440254
197.042	52.4340653
197.257	57.18958207
197.471	49.15333411
197.685	51.0951526
197.9	38.11805961
198.114	29.39811831
198.328	32.21735087
198.543	25.52250191
198.757	30.30446443
198.971	32.49556952
199.186	33.72799501
199.4	52.12316021
199.614	57.18915231
199.829	64.36477007
200.043	58.36037575
200.257	56.21161086
200.471	53.46664175
200.686	51.72699069
200.9	63.12086975
201.114	47.487615
201.328	49.49585481
201.543	59.68023982
201.757	55.77807848
201.971	64.32382278
202.185	64.17438446
202.399	92.51074279
202.614	94.84891503
202.828	95.64918708
203.042	90.88241049
203.256	90.46147905
203.47	86.46895273
203.684	96.97808044
203.899	87.09242186
204.113	81.75689909
204.327	81.04350966
204.541	92.62826449
204.755	86.47503225
204.969	89.51204697
205.183	88.37079695
205.397	90.77641565
205.611	108.86101558
205.825	105.12820513
206.039	106.57501494
206.253	114.66787989
206.467	112.54125413
206.681	105.46752568
206.895	113.64962084
207.109	106.92951016
207.323	99.18515165
207.537	99.77459346
207.751	100.33237649
207.965	97.78228955
208.179	91.11664591
208.393	90.71259239
208.607	97.4980695
208.821	98.78349499
209.035	93.53108765
209.249	94.1323898
209.463	97.99969226
209.677	92.61253178
209.891	82.88911795
210.104	75.77298889
210.318	76.78454055
210.532	75.02388426
210.746	69.03740943
210.96	73.93813111
211.174	78.69096935
211.387	66.58626789
211.601	66.91891892
211.815	74.15139442
212.029	70.72429512
212.243	66.74593013
212.456	71.15285197
212.67	66.34118323
212.884	60.38578318
213.098	66.14834674
213.311	69.7495563
213.525	75.95606982
213.739	66.31965707
213.953	66.49315597
214.166	65.42979676
214.38	79.70800222
214.594	77.42841101
214.807	82.20249419
215.021	75.26366251
215.235	74.76923077
215.448	69.5289113
215.662	62.55483418
215.876	55.80365054
216.089	62.06830021
216.303	49.57313603
216.516	58.62188968
216.73	56.88311688
216.944	50.7732439
217.157	64.09739715
217.371	57.21490158
217.584	47.73027766
217.798	45.66710507
218.011	43.82966802
218.225	49.44012647
218.439	40.54480853
218.652	38.51096522
218.866	38.9608655
219.079	45.33149517
219.293	43.06236461
219.506	45.94908753
219.719	39.81793241
219.933	40.76179648
220.146	44.45470401
220.36	56.72443499
220.573	51.15076549
220.787	51.54850545
221	43.42801598
221.214	46.93604197
221.427	42.50874775
221.64	36.24959794
221.854	36.11862756
222.067	39.13634818
222.28	29.86894587
222.494	36.68405921
222.707	30.6770899
222.92	28.14356736
223.134	24.34683832
223.347	15.82546847
223.56	8.30515949
223.774	6.91690631
223.987	4.91177873
224.2	11.9372549
224.414	5.53492485
224.627	8.32869597
224.84	-11.93102065
225.053	-20.81540204
225.267	-19.7509243
225.48	-12.57971014
225.693	-8.942472
225.906	-20.30688084
226.119	-35.60587211
226.333	-23.46032655
226.546	-45.84291817
226.759	-14.53971896
226.972	-65.54162649
227.185	-44.14073072
227.398	-22.03864464
227.612	0.02618487
227.825	13.86713817
228.038	3.89052858
228.251	1.07357947
228.464	-0.23329799
228.677	-8.2078473
228.89	-0.05986829
229.103	-6.07710738
229.316	11.69199595
229.529	29.97530864
229.743	37.4796601
229.956	46.73404454
230.169	42.17746136
230.382	49.34664513
230.595	47.94680696
230.808	51.271248
231.021	61.6187653
231.234	63.6159641
231.447	88.83768561
231.66	82.74801748
231.872	86.85663402
232.085	94.81572915
232.298	87.84160625
232.511	88.87497764
232.724	89.68470931
232.937	119.2971246
233.15	135.59283609
233.363	142.96147066
233.576	135.19959829
233.789	119.84803131
234.002	131.81675557
234.214	122.39022972
234.427	114.4600939
234.64	122.19379597
234.853	106.31286854
235.066	128.63232682
235.279	103.41575325
235.491	82.81786942
235.704	82.80681601
235.917	68.14319291
236.13	68.74884152
236.342	65.1240542
236.555	42.80582718
236.768	45.96468064
236.981	40.81121683
237.193	47.90907513
237.406	28.54276856
237.619	27.37662338
237.832	27.77688732
238.044	32.8608843
238.257	36.68372887
238.47	39.66640191
238.682	42.08101668
238.895	35.31325131
239.108	35.09510672
239.32	48.47593997
239.533	48.00068646
239.746	40.54054054
239.958	33.00124533
240.171	10.00804937
240.383	11.5629742
240.596	28.6661363
240.808	14.30152144
241.021	45.16586334
241.234	51.54257507
241.446	60.51036683
241.659	52.73953358
241.871	58.67768595
242.084	55.64995752
242.296	42.74786702
242.509	39.83173774
242.721	17.60636458
242.934	20.1320132
243.146	17.1237954
243.359	33.514542
243.571	28.41201717
243.784	-1.48992112
243.996	1.97892573
244.208	-1.52584833
244.421	17.82767223
244.633	33.03047511
244.846	27.63946938
245.058	22.04379562
245.27	38.85588185
245.483	24.10332103
245.695	27.4404516
245.907	26.65764547
246.12	17.43467933
246.332	27.36792004
246.544	34.9208836
246.757	46.05076462
246.969	43.08647584
247.181	42.86945282
247.394	42.72219837
247.606	48.07490637
247.818	42.17410916
248.03	47.11678243
248.243	50.27940966
248.455	48.32116788
248.667	53.17388494
248.879	44.53587412
249.092	41.72039629
249.304	43.01281107
249.516	46.34563328
249.728	37.01197293
249.94	42.55002481
250.153	35.81093271
250.365	44.4295302
250.577	57.12922313
250.789	48.3362185
251.001	36.57664103
251.213	39.38203251
251.425	42.0823846
251.637	51.46135527
251.85	44.44688806
252.062	33.03984151
252.274	39.20122106
252.486	25.64375399
252.698	32.63733532
252.91	29.73550628
253.122	15.78112609
253.334	32.9899321
253.546	30.28657052
253.758	29.45849885
253.97	36.30395862
254.182	40.32344055
254.394	40.2113559
254.606	40.62773979
254.818	36.53936822
255.03	34.63196551
255.242	42.60327358
255.454	39.85037406
255.666	27.62071993
255.877	34.07857965
256.089	36.62501882
256.301	46.12610013
256.513	52.60080947
256.725	52.43108464
256.937	65.19464533
257.149	61.61860184
257.361	60.87281423
257.572	68.37729816
257.784	71.90240791
257.996	78.12548897
258.208	71.02903177
258.42	54.18271453
258.631	56.18822835
258.843	61.29324671
259.055	58.6320684
259.267	54.54129141
259.479	52.75375512
259.69	40.12950357
259.902	51.88047398
260.114	56.38014717
260.325	60.71245076
260.537	48.53983065
260.749	37.08848716
260.961	32.24322943
261.172	33.88629687
261.384	30.87882183
261.596	34.72902245
261.807	41.8678645
262.019	43.63602181
262.23	40.93789607
262.442	31.25572869
262.654	30.39395795
262.865	48.13251741
263.077	63.4294787
263.288	62.6707132
263.5	71.39858305
263.712	86.86131387
263.923	92.46403288
264.135	88.89986174
264.346	84.73131073
264.558	87.20591095
264.769	78.1397992
264.981	88.8370205
265.192	83.79288571
265.404	84.30484037
265.615	83.12282629
265.827	68.99050072
266.038	63.61779723
266.25	65.65371025
266.461	63.42574515
266.673	65.62879094
266.884	70.95920924
267.095	78.68417377
267.307	72.22735065
267.518	65.75960952
267.73	65.24931896
267.941	62.92260062
268.152	57.94580523
268.364	48.0239521
268.575	44.84322882
268.786	36.23224212
268.998	35.75061954
269.209	35.32240168
269.42	33.7082773
269.632	34.68077518
269.843	33.90201729
270.054	26.46596542
270.265	40.46888425
270.477	43.01033085
270.688	35.14832413
270.899	33.74315114
271.11	31.05517151
271.322	25.46241637
271.533	25.94381594
271.744	26.01355842
271.955	20.81316554
272.166	22.33483002
272.378	26.36121335
272.589	28.7823378
272.8	34.28536255
273.011	40.79765825
273.222	44.90076145
273.433	35.99686643
273.644	39.94431924
273.856	47.0397975
274.067	50.92947353
274.278	52.11267606
274.489	64.23797881
274.7	60.66442834
274.911	53.45083182
275.122	54.66747097
275.333	57.57920159
275.544	58.13414457
275.755	57.96103706
275.966	54.36108353
276.177	49.90638053
276.388	50.21711724
276.599	60.04346055
276.81	56.16560321
277.021	51.92167178
277.232	56.51638714
277.443	52.09598578
277.654	52.22594543
277.865	53.47145342
278.076	46.89711934
278.287	35.64075787
278.497	43.31759727
278.708	45.58524769
278.919	39.56768358
279.13	34.91996033
279.341	37.26143205
279.552	39.9314599
279.763	36.00116839
279.973	38.09305873
280.184	44.06803685
280.395	36.50035137
280.606	40.45071132
280.817	43.06166018
281.027	31.59841817
281.238	27.92314499
281.449	28.36604576
281.66	27.5104979
281.87	27.19645212
282.081	33.37967791
282.292	38.64158373
282.503	40.58339262
282.713	46.24168404
282.924	42.55621976
283.135	44.45396553
283.345	44.51447885
283.556	43.42016726
283.767	44.55125155
283.977	39.88204583
284.188	36.32425147
284.399	42.36040843
284.609	43.04151016
284.82	52.07151783
285.03	60.51287624
285.241	59.61120877
285.451	56.03493634
285.662	67.13688102
285.873	66.26820693
286.083	71.57021231
286.294	68.385532
286.504	66.47002038
286.715	70.14212621
286.925	68.89213183
287.136	69.24015124
287.346	73.2718894
287.557	73.99062107
287.767	77.31762466
287.978	69.90141347
288.188	64.31838975
288.399	67.27176361
288.609	78.32357561
288.819	62.82775605
289.03	54.51058389
289.24	54.05732741
289.451	44.50853443
289.661	38.06341878
289.871	45.13603185
290.082	35.10071475
290.292	35.89535826
290.502	31.13063855
290.713	35.69530558
290.923	34.7638484
291.133	32.88605613
291.344	26.82589131
291.554	24.72849831
291.764	15.22103364
291.974	16.46636105
292.185	8.18940195
292.395	16.48175683
292.605	18.19588242
292.815	21.46938776
293.026	19.35244948
293.236	19.05641918
293.446	18.77546269
293.656	14.62459969
293.866	6.75873058
294.077	10.27406507
294.287	14.75367882
294.497	8.44181989
294.707	6.25091068
294.917	6.72439453
295.127	9.86088883
295.337	-0.83654229
295.548	-6.08743021
295.758	5.51446737
295.968	2.4285894
296.178	7.95793847
296.388	5.1755238
296.598	7.21578128
296.808	11.68068871
297.018	17.53784057
297.228	11.34399706
297.438	21.97945845
297.648	23.22464493
297.858	44.44658325
298.068	39.1162696
298.278	41.76834992
298.488	44.90679721
298.698	39.77566868
298.908	45.62016092
299.118	42.26773958
299.328	52.00118151
299.538	53.99463807
299.748	60.51517939
299.957	56.89746768
300.167	63.38712476
300.377	65.36577125
300.587	50.21749638
300.797	44.33270837
301.007	38.87406991
301.217	28.23152915
301.426	27.09590053
301.636	34.16837288
301.846	24.21237605
302.056	29.93028477
302.266	18.13686026
302.475	24.44241107
302.685	30.28466903
302.895	31.76822111
303.105	30.97387745
303.314	29.16387062
303.524	34.16678505
303.734	30.58610608
303.944	34.46964731
304.153	43.90573217
304.363	49.33670246
304.573	46.77398748
304.782	48.99110164
304.992	67.051798
305.202	70.78595527
305.411	77.87245373
305.621	81.8009703
305.831	86.07446114
306.04	89.78785662
306.25	91.56327543
306.459	91.76869745
306.669	105.61983471
306.878	102.10891232
307.088	97.48886189
307.298	98.89251739
307.507	94.34822242
307.717	91.06215977
307.926	85.92272674
308.136	86.58207026
308.345	83.69781312
308.555	79.84255461
308.764	82.84106892
308.974	88.85354071
309.183	89.1217444
309.392	78.66635305
309.602	76.17576382
309.811	74.51179591
310.021	74.98453544
310.23	70.79301524
310.44	69.70644045
310.649	75.85357269
310.858	76.07885563
311.068	73.29862402
311.277	64.46440026
311.486	66.60107569
311.696	64.38571242
311.905	59.56727519
312.114	63.59514602
312.324	64.30881733
312.533	61.08310529
312.742	57.34568824
312.952	55.63738383
313.161	49.09872664
313.37	50.99619772
313.579	42.93043609
313.789	39.12777353
313.998	36.28843452
314.207	40.43417148
314.416	36.82619647
314.625	45.22435301
314.835	42.91446289
315.044	26.74604585
315.253	28.63926642
315.462	22.68024829
315.671	26.99291025
315.88	6.52215986
316.09	0.59979317
316.299	5.57140141
316.508	-5.72063877
316.717	-11.21096383
316.926	10.16845951
317.135	15.31976146
317.344	23.83730908
317.553	30.33784943
317.762	22.40287524
317.971	38.76118617
318.18	46.46904969
318.389	51.08141375
318.598	42.47744053
318.807	40.1146553
319.016	30.34965035
319.225	33.82235688
319.434	45.95008421
319.643	39.29874663
319.852	38.06341045
320.061	41.43499251
320.27	45.51507305
320.479	55.64375298
320.688	66.29803187
320.897	71.29503408
321.105	70.03679692
321.314	55.03756502
321.523	59.10724418
321.732	48.67836257
321.941	48.48551846
322.15	40.61982493
322.359	34.83146067
322.567	24.90815577
322.776	15.81620873
322.985	22.10223182
323.194	29.68713789
323.403	34.29931691
323.611	34.83514233
323.82	40.23775942
324.029	51.44821838
324.237	49.68316493
324.446	47.89585721
324.655	56.77341552
324.864	51.98802196
325.072	55.01454601
325.281	50.39212671
325.49	51.8573065
325.698	50.77983911
325.907	40.27040904
326.116	48.75982129
326.324	45.75663789
326.533	57.06936867
326.741	53.60973267
326.95	65.01985703
327.159	67.78460085
327.367	78.29484285
327.576	73.6374717
327.784	79.06849315
327.993	85.52746295
328.201	76.6350302
328.41	59.61995249
328.618	61.52354082
328.827	63.36111584
329.035	57.78073342
329.244	54.54694413
329.452	48.59275385
329.661	50.74932955
329.869	49.12206771
330.078	48.64523375
330.286	56.46131231
330.495	54.49677331
330.703	56.59832118
330.911	49.21560461
331.12	42.69005848
331.328	37.65096218
331.537	31.74051952
331.745	22.27687983
331.953	29.52082517
332.162	28.03289925
332.37	19.26106258
332.578	18.78754016
332.787	22.5277098
332.995	25.38845331
333.203	23.85818238
333.411	19.24202742
333.62	19.1957381
333.828	21.26872932
334.036	20.43660789
334.244	7.39389284
334.453	16.68928087
334.661	3.12065196
334.869	14.12789463
335.077	17.60609358
335.285	21.59518435
335.494	44.83230664
335.702	45.73093489
335.91	56.2055336
336.118	46.33502091
336.326	39.56014119
336.534	40.18126888
336.742	41.12214269
336.951	47.46644755
337.159	53.56244761
337.367	58.11023622
337.575	55.15330624
337.783	92.96035569
337.991	99.04549793
338.199	88.57306919
338.407	137.83377209
338.615	151.6109236
338.823	136.42404108
339.031	160.98535286
339.239	124.88611844
339.447	125.12758202
339.655	98.9917322
339.863	94.33922111
340.071	87.48577929
340.279	88.15176392
340.487	97.05515348
340.695	83.60272639
340.903	86.07663249
341.11	84.18634131
341.318	87.19974206
341.526	94.62019963
341.734	94.10278012
341.942	90.49084475
342.15	78.36561171
342.358	69.89281715
342.565	58.48633497
342.773	55.95891375
342.981	42.86151492
343.189	47.42563793
343.397	34.40669779
343.604	42.8525069
343.812	38.81943345
344.02	41.79079498
344.228	38.09600776
344.435	46.67829119
344.643	49.47329514
344.851	55.22766936
345.058	59.37443171
345.266	58.43307943
345.474	41.54256501
345.681	31.49069467
345.889	33.33333333
346.097	36.72196013
346.304	41.80289584
346.512	46.64937311
346.72	48.41676521
346.927	53.08077198
347.135	55.83977512
347.342	56.36314142
347.55	56.60459073
347.758	62.13860235
347.965	58.82606819
348.173	64.21952958
348.38	66.56486522
348.588	67.440612
348.795	71.18584071
349.003	58.22222222
349.21	60.63672541
349.418	61.91253644
349.625	58.09367297
349.833	70.88955224
350.04	74.60818856
350.247	70.96201633
350.455	69.16214587
350.662	67.42268041
350.87	64.54187746
351.077	60.05709528
351.284	63.67676295
351.492	58.45366686
351.699	66.30541872
351.906	65.63968668
352.114	61.76800081
352.321	65.11603037
352.528	60.55607428
352.736	57.09378578
352.943	53.85578629
353.15	42.49805361
353.358	49.63052695
353.565	48.0338111
353.772	49.96968595
353.979	51.42113011
354.187	40.59712145
354.394	44.46196773
354.601	36.35345364
354.808	32.23272534
355.015	28.37082481
355.223	36.33407051
355.43	45.42148331
355.637	38.88396811
355.844	41.64305949
356.051	36.30198337
356.258	38.55659261
356.465	32.10680976
356.673	36.71375106
356.88	35.06221349
357.087	35.67380788
357.294	42.91983994
357.501	49.59272813
357.708	54.91731941
357.915	52.14509068
358.122	50.85855466
358.329	48.97879537
358.536	51.96310607
358.743	49.37221547
358.95	57.77987337
359.157	63.47968814
359.364	58.89747085
359.571	59.82185462
359.778	39.37867338
359.985	42.25788802
360.192	35.03231764
360.399	33.01133197
360.606	36.12153709
360.812	35.9764475
361.019	26.32845398
361.226	23.17787673
361.433	27.21636702
361.64	14.58482037
361.847	7.11544139
362.054	-5.70461058
362.26	-7.61597618
362.467	-6.00387347
362.674	6.51207729
362.881	18.40063656
363.088	24.29490351
363.294	21.95359403
363.501	23.46891788
363.708	31.74295512
363.915	25.66498922
364.121	45.38562473
364.328	49.71348707
364.535	50.79340625
364.741	47.3015873
364.948	41.09156518
365.155	48.5483172
365.361	48.97602794
365.568	44.11289137
365.775	47.65100671
365.981	47.44223108
366.188	44.54416627
366.395	52.54932912
366.601	61.58695986
366.808	63.99527586
367.014	63.42468207
367.221	58.85975717
367.427	60.54473236
367.634	61.03312746
367.84	49.70339745
368.047	51.10124005
368.254	48.04524707
368.46	38.87872234
368.667	26.48707286
368.873	25.67772352
369.079	24.71541578
369.286	26.75997493
369.492	12.54652945
369.699	14.41987869
369.905	19.49349028
370.112	17.22329079
370.318	15.56857003
370.524	19.27121908
370.731	19.41024472
370.937	13.67640241
371.144	12.15113783
371.35	11.54345006
371.556	8.32112901
371.763	1.87021464
371.969	2.22058643
372.175	4.36860975
372.381	5.12329117
372.588	8.42091605
372.794	7.10567047
373	12.34615883
373.206	13.23258386
373.413	16.17296561
373.619	16.65822785
373.825	19.75665703
374.031	21.11417435
374.238	23.98880201
374.444	26.30989073
374.65	29.52848909
374.856	32.04799508
375.062	25.33707259
375.268	23.18426895
375.475	29.73328943
375.681	32.00041654
375.887	29.0210171
376.093	31.47955046
376.299	31.12013929
376.505	41.27876153
376.711	42.19362622
376.917	39.51589385
377.123	35.30738308
377.329	30.31962561
377.535	33.56075048
377.741	37.86106222
377.947	35.2809468
378.153	35.5953243
378.359	37.44640803
378.565	31.4313253
378.771	27.46952706
378.977	29.66337393
379.183	27.21414265
379.389	32.77627591
379.595	35.54659711
379.801	30.48195613
380.007	30.06868687
380.213	29.21660449
380.418	31.04466019
380.624	31.85929648
380.83	26.45964619
381.036	24.88504403
381.242	24.08902301
381.448	28.00474531
381.653	31.86946316
381.859	28.37949411
382.065	25.0729901
382.271	28.0485283
382.476	27.81479238
382.682	29.03992082
382.888	30.107597
383.094	31.65061441
383.299	31.3975056
383.505	33.61042887
383.711	31.83098592
383.916	30.86218772
384.122	33.72255671
384.328	31.81733918
384.533	33.92450274
384.739	33.95065346
384.945	34.01224326
385.15	33.91395227
385.356	34.39698632
385.562	37.05544079
385.767	40.04615963
385.973	38.62891052
386.178	39.02256015
386.384	39.08371885
386.589	38.02611777
386.795	38.48231704
387	34.36733877
387.206	33.08797219
387.411	34.0575774
387.617	34.72952758
387.822	32.22216961
388.028	33.95635803
388.233	35.31067137
388.439	33.3978788
388.644	36.10698366
388.85	32.10656183
389.055	32.39496333
389.26	32.16475332
389.466	31.06355643
389.671	28.92886602
389.877	25.39112296
390.082	23.11590586
390.287	22.95451937
390.493	22.62337762
390.698	23.01283751
390.903	22.82269876
391.109	24.13401073
391.314	27.03448758
391.519	26.89856889
391.724	25.59980724
391.93	22.65095311
392.135	21.70119956
392.34	20.62259507
392.545	19.53790711
392.751	19.13240957
392.956	17.76829461
393.161	19.74438211
393.366	17.30902058
393.571	15.73422097
393.776	15.30415939
393.982	14.16110537
394.187	14.63516331
394.392	13.40695422
394.597	13.06933859
394.802	13.18137669
395.007	12.80147844
395.212	12.23109767
395.417	11.76509698
395.622	11.3140751
395.827	11.27498337
396.032	11.01370491
396.237	11.19387759
396.442	11.32066433
396.647	11.23141316
396.852	11.0035807
397.057	10.98393067
397.262	10.78460068
397.467	10.95734045
397.672	11.16054231
397.877	11.02890184
398.082	10.96726668
398.287	11.0234854
398.492	10.92243254
398.697	10.97152517
398.902	11.00773787
399.107	10.8801864
399.311	10.84897958
399.516	10.83028085
399.721	10.73182658
399.926	10.69955667
400.131	10.64679923
400.336	10.64606847
400.54	10.61595012
400.745	10.54915268
400.95	10.55745935
401.155	10.75045798
401.359	10.77825345
401.564	10.72268302
401.769	10.56032093
401.974	10.44916144
402.178	10.66557584
402.383	10.64436532
402.588	10.55692271
402.792	10.62699278
402.997	10.55879998
403.202	10.45434383
403.406	10.38500061
403.611	10.40145395
403.815	10.3642763
404.02	10.52058806
404.225	10.48257189
404.429	10.63485862
404.634	10.5772245
404.838	10.65498018
405.043	10.56837647
405.247	10.51202964
405.452	10.28865573
405.656	10.13977189
405.861	10.34755
406.065	10.34083573
406.27	10.3171558
406.474	10.20117109
406.679	10.26990466
406.883	10.18504541
407.088	10.101449
407.292	10.0391566
407.497	10.2909917
407.701	10.51567153
407.905	10.63243736
408.11	10.65592248
408.314	10.46833397
408.518	10.57924237
408.723	10.7332177
408.927	10.83517764
409.131	10.71939474
409.336	10.71131907
409.54	10.72197327
409.744	10.83209788
409.949	11.12924883
410.153	11.26887788
410.357	11.34906321
410.561	11.28335441
410.766	10.99596073
410.97	10.70642484
411.174	10.83719522
411.378	11.00358198
411.582	11.04085009
411.787	10.67389225
411.991	10.32876513
412.195	9.85602974
412.399	10.15851278
412.603	10.46937818
412.807	10.27390653
413.011	10.07943748
413.215	10.18736183
413.419	10.31913552
413.624	10.34847944
413.828	10.12794404
414.032	10.15917621
414.236	10.08821839
414.44	9.79827199
414.644	9.61814247
414.848	9.63747581
415.052	9.87557096
415.256	10.03319475
415.46	9.96300221
415.664	9.89651326
415.868	10.01745394
416.072	9.82813316
416.275	9.90809831
416.479	10.18855913
416.683	10.05987357
416.887	9.97201689
417.091	9.99754282
417.295	9.92923617
417.499	9.86242724
417.703	9.71674129
417.906	9.79139791
418.11	9.81741436
418.314	9.84335809
418.518	9.69788476
418.722	9.630497
418.925	9.68584849
419.129	9.56856528
419.333	9.56839449
419.537	9.69760279
419.74	9.9954255
419.944	9.96557466
420.148	9.96635514
420.352	10.14225775
420.555	10.02600143
420.759	9.89196447
420.963	9.8536762
421.166	9.71734226
421.37	9.68744554
421.573	9.62819894
421.777	9.60073063
421.981	9.64868922
422.184	9.6198725
422.388	9.65481798
422.591	9.54081938
422.795	9.60630887
422.999	9.67924402
423.202	9.64872764
423.406	9.77819629
423.609	9.84838574
423.813	9.67423313
424.016	9.44050638
424.22	9.4217593
424.423	9.34637936
424.627	9.3845474
424.83	9.51663535
425.033	9.48254305
425.237	9.52767855
425.44	9.64337834
425.644	9.62601024
425.847	9.65360949
426.05	9.6917063
426.254	9.66833896
426.457	9.66808646
426.66	9.67142438
426.864	9.67805188
427.067	9.66368903
427.27	9.67071934
427.474	9.70950832
427.677	9.66633877
427.88	9.62201523
428.084	9.63254008
428.287	9.64872252
428.49	9.68154316
428.693	9.67641833
428.896	9.67291707
429.1	9.63481342
429.303	9.64052223
429.506	9.61939963
429.709	9.59168972
429.912	9.62574735
430.116	9.58105972
430.319	9.56445097
430.522	9.55017197
430.725	9.55227988
430.928	9.5512424
431.131	9.54511417
431.334	9.53793569
431.537	9.48643406
431.74	9.46492089
431.943	9.47029313
432.146	9.48192945
432.349	9.45640329
432.552	9.46660421
432.755	9.43115371
432.958	9.41375734
433.161	9.40447103
433.364	9.44486777
433.567	9.44099342
433.77	9.45122408
433.973	9.44047648
434.176	9.4259484
434.379	9.45719573
434.582	9.44440055
434.785	9.44167487
434.988	9.44432293
435.19	9.41748712
435.393	9.40858042
435.596	9.40515452
435.799	9.4262897
436.002	9.45525382
436.205	9.45789822
436.407	9.42026432
436.61	9.4431414
436.813	9.42260009
437.016	9.43335923
437.218	9.45385196
437.421	9.45475444
437.624	9.4153422
437.827	9.39960596
438.029	9.39241697
438.232	9.40332486
438.435	9.3683486
438.637	9.37442269
438.84	9.37060292
439.043	9.39736839
439.245	9.34150206
439.448	9.35734571
439.65	9.36023616
439.853	9.35546461
440.056	9.34582505
440.258	9.28721752
440.461	9.26484236
440.663	9.27392775
440.866	9.22847146
441.068	9.2440465
441.271	9.17028413
441.473	9.15290026
441.676	9.12436722
441.878	9.10912554
442.081	9.06669241
442.283	9.06513244
442.486	9.07592918
442.688	9.07726434
442.89	9.02277787
443.093	9.07064096
443.295	9.00127249
443.498	9.05049911
443.7	9.06558152
443.902	9.09520528
444.105	9.11842145
444.307	9.18483718
444.509	9.2475004
444.712	9.25681927
444.914	9.26189756
445.116	9.25266267
445.319	9.22950348
445.521	9.27426275
445.723	9.22463784
445.925	9.26672986
446.128	9.25608355
446.33	9.33735287
446.532	9.31762003
446.734	9.27132754
446.936	9.27076437
447.139	9.28654172
447.341	9.25548861
447.543	9.31039811
447.745	9.28179877
447.947	9.2413388
448.149	9.17214577
448.351	9.11222743
448.553	9.07370394
448.755	8.99393809
448.958	9.02296277
449.16	9.00365579
449.362	9.03381111
449.564	9.01168858
449.766	9.04531746
449.968	9.16215647
450.17	9.15526158
450.372	9.17373441
450.574	9.13135417
450.776	9.07823655
450.978	9.10423833
451.179	9.09959349
451.381	9.14731367
451.583	9.13854104
451.785	9.0728621
451.987	9.06821303
452.189	9.10575138
452.391	9.15591324
452.593	9.16048158
452.795	9.15195155
452.996	9.13766213
453.198	9.13805434
453.4	9.17656055
453.602	9.22996148
453.804	9.24130934
454.005	9.22849557
454.207	9.16089219
454.409	9.11516516
454.611	9.10413586
454.812	9.09670769
455.014	9.15696629
455.216	9.13280395
455.417	9.13444626
455.619	9.05885388
455.821	8.996852
456.022	9.03984186
456.224	9.12407805
456.426	9.12293895
456.627	9.13006814
456.829	9.18526228
457.031	9.20384448
457.232	9.22470972
457.434	9.19220522
457.635	9.2112721
457.837	9.15024701
458.038	9.09835098
458.24	9.09523367
458.441	9.08996114
458.643	9.11170933
458.844	9.07948319
459.046	9.18770182
459.247	9.26512034
459.449	9.30082744
459.65	9.29621788
459.852	9.33502275
460.053	9.433722
460.254	9.36901927
460.456	9.29419694
460.657	9.34152991
460.859	9.28342427
461.06	9.27075272
461.261	9.24970592
461.463	9.29121074
461.664	9.3448219
461.865	9.32866793
462.066	9.32689119
462.268	9.36078324
462.469	9.34102282
462.67	9.35884194
462.872	9.40370772
463.073	9.45915301
463.274	9.36269541
463.475	9.19316461
463.676	9.13670988
463.878	9.18634172
464.079	9.21336679
464.28	9.23050101
464.481	9.30972568
464.682	9.29653102
464.883	9.18380613
465.085	9.24179858
465.286	9.31158934
465.487	9.38820228
465.688	9.35933189
465.889	9.31843585
466.09	9.33801215
466.291	9.34392251
466.492	9.33053425
466.693	9.33989484
466.894	9.3144528
467.095	9.33900404
467.296	9.32440674
467.497	9.32088197
467.698	9.35498553
467.899	9.39219408
468.1	9.36459184
468.301	9.37627425
468.502	9.33558072
468.703	9.34480344
468.903	9.39064165
469.104	9.45964828
469.305	9.45545443
469.506	9.37139032
469.707	9.2747143
469.908	9.29469352
470.109	9.30386995
470.309	9.22016242
470.51	9.22989412
470.711	9.29295389
470.912	9.32818679
471.112	9.29201115
471.313	9.20936352
471.514	9.16881578
471.715	9.21328512
471.915	9.25589062
472.116	9.30704277
472.317	9.27600696
472.517	9.24535808
472.718	9.35118673
472.919	9.33545154
473.119	9.31027448
473.32	9.29762097
473.521	9.27800343
473.721	9.30590508
473.922	9.3521072
474.122	9.34115294
474.323	9.37678639
474.523	9.44145795
474.724	9.48137295
474.925	9.45434909
475.125	9.46290594
475.326	9.55683734
475.526	9.58356465
475.727	9.60830997
475.927	9.58857229
476.127	9.59431048
476.328	9.57144571
476.528	9.62381998
476.729	9.68513078
476.929	9.62075243
477.13	9.63979259
477.33	9.662271
477.53	9.70340936
477.731	9.71040212
477.931	9.67511121
478.131	9.67440732
478.332	9.71665247
478.532	9.74503321
478.732	9.76597199
478.933	9.76351839
479.133	9.76575401
479.333	9.77122352
479.533	9.75751991
479.734	9.7711141
479.934	9.79421731
480.134	9.82800461
480.334	9.8413647
480.534	9.83898764
480.735	9.85628076
480.935	9.83500457
481.135	9.84570098
481.335	9.8552849
481.535	9.8562815
481.735	9.84597695
481.935	9.87292724
482.136	9.88697181
482.336	9.89405674
482.536	9.90449626
482.736	9.89434238
482.936	9.88728229
483.136	9.90633106
483.336	9.92182418
483.536	9.92520002
483.736	9.92877423
483.936	9.94242078
484.136	9.95871707
484.336	9.96064999
484.536	9.9810902
484.736	9.9919594
484.936	9.99339042
485.135	10.0086791
485.335	10.02513821
485.535	10.03411798
485.735	10.05775124
485.935	10.07221323
486.135	10.08896561
486.335	10.11481957
486.534	10.13517912
486.734	10.14250766
486.934	10.15631303
487.134	10.17588473
487.334	10.1906318
487.533	10.20932221
487.733	10.22766329
487.933	10.25074768
488.133	10.25545459
488.332	10.27492525
488.532	10.2903332
488.732	10.31175177
488.931	10.35564728
489.131	10.37542664
489.331	10.39637194
489.53	10.40693821
489.73	10.44141289
489.93	10.46774783
490.129	10.50712234
490.329	10.51201852
490.528	10.5482789
490.728	10.58228721
490.928	10.61195817
491.127	10.6597525
491.327	10.71147638
491.526	10.76389117
491.726	10.8042509
491.925	10.84880805
492.125	10.8953641
492.324	10.95001712
492.524	10.97377702
492.723	11.03364736
492.922	11.07088326
493.122	11.09794844
493.321	11.13869148
493.521	11.20894114
493.72	11.2924239
493.919	11.32748619
494.119	11.37933408
494.318	11.41909549
494.517	11.49419844
494.717	11.56196826
494.916	11.64264007
495.115	11.70847986
495.315	11.74136739
495.514	11.79674705
495.713	11.82680387
495.912	11.89249068
496.112	12.0070827
496.311	12.08300362
496.51	12.15779346
496.709	12.26250789
496.908	12.31642081
497.108	12.44111307
497.307	12.55677254
497.506	12.69758316
497.705	12.78718849
497.904	12.88003977
498.103	13.02240928
498.302	13.12516648
498.501	13.25018388
498.701	13.43991923
498.9	13.55386617
499.099	13.64759358
499.298	13.80530366
499.497	13.96630223
499.696	14.062137
499.895	14.19489072
500.094	14.33236075
500.293	14.45218525
500.492	14.5957443
500.691	14.82305553
500.89	15.01333106
501.088	15.21095383
501.287	15.3395573
501.486	15.49912817
501.685	15.68638501
501.884	15.82700594
502.083	16.05545936
502.282	16.20428511
502.481	16.40871841
502.679	16.61042199
502.878	16.67834501
503.077	16.93197143
503.276	17.12944652
503.475	17.20822753
503.673	17.45549416
503.872	17.76178524
504.071	18.10730378
504.27	18.38835729
504.468	18.6629534
504.667	18.95448338
504.866	19.11693073
505.064	19.38041225
505.263	19.61362326
505.462	19.9265582
505.66	20.26158989
505.859	20.50108099
506.058	20.82144695
506.256	21.08264564
506.455	21.3586132
506.653	21.67332225
506.852	22.02278806
507.05	22.34541913
507.249	22.64245089
507.448	23.02504974
507.646	23.42656894
507.845	23.71187018
508.043	23.96145566
508.242	24.13026547
508.44	24.4624699
508.638	24.63196453
508.837	24.97166725
509.035	25.21405235
509.234	25.2982412
509.432	25.56009955
509.631	25.75595926
509.829	25.89943302
510.027	26.1662821
510.226	26.36897321
510.424	26.62363279
510.622	26.88240549
510.821	27.16411857
511.019	27.42676943
511.217	27.61138292
511.415	27.78927371
511.614	27.97019579
511.812	28.23816279
512.01	28.41126425
512.208	28.55956481
512.407	28.83133124
512.605	28.92425228
512.803	29.12844427
513.001	29.17137785
513.199	29.2257803
513.398	29.65822369
513.596	29.82209935
513.794	29.88777598
513.992	30.01414144
514.19	30.05018206
514.388	30.31144018
514.586	30.3907897
514.784	30.44195376
514.982	30.34014506
515.18	30.41870382
515.378	30.55046879
515.576	30.49101747
515.774	30.60584878
515.972	30.6138133
516.17	30.81256888
516.368	30.83178145
516.566	30.87553327
516.764	30.90546966
516.962	30.90226669
517.16	31.00785775
517.358	31.17823387
517.556	31.18091959
517.754	31.08111226
517.952	31.11135602
518.149	31.25423036
518.347	31.03583636
518.545	30.8927467
518.743	30.85325289
518.941	30.9551494
519.138	31.22269475
519.336	31.12645808
519.534	30.98747375
519.732	30.92566112
519.929	30.71509366
520.127	30.57750941
520.325	30.26768986
520.523	30.34716743
520.72	30.36782162
520.918	30.36668042
521.116	30.28981028
521.313	30.13860085
521.511	30.05607574
521.709	29.7722344
521.906	29.87893756
522.104	29.84115615
522.301	29.65719591
522.499	29.74920314
522.696	29.72477187
522.894	29.64111243
523.092	29.47822563
523.289	29.40668135
523.487	29.19279528
523.684	29.30796024
523.882	29.14430957
524.079	29.06225599
524.276	28.954057
524.474	29.00594567
524.671	28.74976988
524.869	28.57714462
525.066	28.45077065
525.264	28.33681989
525.461	28.25334482
525.658	28.17475781
525.856	28.15263912
526.053	27.94564742
526.25	27.78038169
526.448	27.68676152
526.645	27.651432
526.842	27.52978835
527.039	27.44302128
527.237	27.40164964
527.434	27.09798603
527.631	26.99688248
527.828	26.8107941
528.026	26.72094524
528.223	26.59476545
528.42	26.42303857
528.617	26.29760011
528.814	26.21987563
529.012	26.09794476
529.209	25.95134479
529.406	25.79946693
529.603	25.68990063
529.8	25.52279998
529.997	25.37681604
530.194	25.26511885
530.391	25.15040866
530.588	24.9945087
530.785	24.81259931
530.982	24.64538689
531.179	24.47049399
531.376	24.29588756
531.573	24.16063222
531.77	24.02404681
531.967	23.8682176
532.164	23.72793948
532.361	23.60593481
532.558	23.50772389
532.755	23.39431834
532.952	23.32742476
533.149	23.22650158
533.346	23.15333689
533.543	23.07652566
533.739	22.97967937
533.936	22.92068809
534.133	22.87130774
534.33	22.81790974
534.527	22.75196158
534.723	22.69895958
534.92	22.62921607
535.117	22.57302397
535.314	22.51936791
535.51	22.46230126
535.707	22.40610032
535.904	22.34511285
536.1	22.28923861
536.297	22.24235319
536.494	22.1949155
536.69	22.14761805
536.887	22.09720068
537.084	22.04073329
537.28	21.99433493
537.477	21.94173247
537.674	21.90018877
537.87	21.85635069
538.067	21.81563169
538.263	21.76258715
538.46	21.71550592
538.656	21.67151656
538.853	21.62502019
539.049	21.59535234
539.246	21.55741933
539.442	21.52082034
539.639	21.48022572
539.835	21.4488056
540.032	21.41823304
540.228	21.39123963
540.424	21.34846427
540.621	21.31650541
540.817	21.28167056
541.014	21.24892858
541.21	21.21676872
541.406	21.18870067
541.603	21.16337817
541.799	21.13315934
541.995	21.10958203
542.191	21.07096976
542.388	21.03771917
542.584	21.00778846
542.78	20.974173
542.976	20.94744597
543.173	20.91426218
543.369	20.88709003
543.565	20.85226685
543.761	20.81864307
543.957	20.78294815
544.154	20.74862942
544.35	20.71098693
544.546	20.68336688
544.742	20.64468234
544.938	20.6085112
545.134	20.56874028
545.33	20.52779931
545.526	20.48865091
545.722	20.44748193
545.919	20.40316153
546.115	20.35189049
546.311	20.31081196
546.507	20.27286163
546.703	20.23080047
546.899	20.18962572
547.095	20.13632643
547.29	20.08673298
547.486	20.03400381
547.682	19.98619757
547.878	19.94602813
548.074	19.8925842
548.27	19.84005837
548.466	19.79081352
548.662	19.74396642
548.858	19.69285167
549.053	19.65031351
549.249	19.60408174
549.445	19.55435772
549.641	19.49656076
549.837	19.44820972
550.032	19.39949854
550.228	19.3502015
550.424	19.3050836
550.62	19.24542549
550.815	19.19019613
551.011	19.13528158
551.207	19.09823915
551.402	19.05582504
551.598	19.00327725
551.794	18.95779119
551.989	18.89547099
552.185	18.84634739
552.381	18.78887686
552.576	18.72374518
552.772	18.66210011
552.967	18.58754838
553.163	18.50171373
553.359	18.4381746
553.554	18.36975874
553.75	18.29947293
553.945	18.20174264
554.141	18.10293145
554.336	18.03623577
554.532	17.96243502
554.727	17.8858454
554.922	17.79761345
555.118	17.74312531
555.313	17.63538004
555.509	17.50778339
555.704	17.40827424
555.899	17.29622929
556.095	17.22291011
556.29	17.13072316
556.486	17.0307597
556.681	16.94344093
556.876	16.84653465
557.071	16.80333192
557.267	16.75278654
557.462	16.65108369
557.657	16.57759936
557.853	16.51067535
558.048	16.42520185
558.243	16.35627747
558.438	16.27972425
558.633	16.09645701
558.829	16.01089555
559.024	15.89041075
559.219	15.75560134
559.414	15.67343047
559.609	15.56428709
559.804	15.46763906
559.999	15.3797428
560.194	15.31100158
560.39	15.21547638
560.585	15.12594141
560.78	15.08441115
560.975	15.10044353
561.17	15.02972016
561.365	14.85423128
561.56	14.78470682
561.755	14.68580754
561.95	14.66889775
562.145	14.63249755
562.34	14.67131804
562.535	14.58765916
562.729	14.57960216
562.924	14.55114155
563.119	14.3901942
563.314	14.30400726
563.509	14.21444385
563.704	14.23625848
563.899	14.17022343
564.093	14.06553229
564.288	13.92267638
564.483	13.98181751
564.678	14.0493015
564.873	13.98265481
565.067	13.78992926
565.262	13.78257767
565.457	13.88304959
565.652	13.96308636
565.846	13.92562079
566.041	13.83354701
566.236	13.76517126
566.43	13.61880561
566.625	13.58707352
566.82	13.67653188
567.014	13.53595127
567.209	13.54488836
567.404	13.57347964
567.598	13.42609397
567.793	13.30345817
567.987	13.20401849
568.182	13.24820608
568.376	13.17875451
568.571	12.98501967
568.765	12.92677857
568.96	12.74906006
569.154	12.65950103
569.349	12.5606649
569.543	12.49136739
569.738	12.41343661
569.932	12.38778125
570.127	12.37842609
570.321	12.34955823
570.515	12.29315481
570.71	12.24722275
570.904	12.15262799
571.098	12.13997488
571.293	12.15365981
571.487	12.104054
571.681	12.10134413
571.876	12.11895791
572.07	12.12433958
572.264	12.08046941
572.458	12.07352102
572.653	12.12308387
572.847	12.10212293
573.041	12.11517577
573.235	12.15655228
573.43	12.14014008
573.624	12.11790559
573.818	12.10698963
574.012	12.10414879
574.206	12.06439575
574.4	12.06948721
574.594	12.07395135
574.788	12.09438175
574.983	12.09569976
575.177	12.11331062
575.371	12.13221528
575.565	12.11122949
575.759	12.10499013
575.953	12.07317646
576.147	12.06491664
576.341	12.06649684
576.535	12.06800029
576.729	12.04731798
576.923	12.03649117
577.117	12.04335791
577.31	12.01861639
577.504	12.01423708
577.698	12.00531266
577.892	11.98226474
578.086	11.96283253
578.28	11.97663857
578.474	11.96829589
578.668	11.97797145
578.861	11.9647396
579.055	11.95594468
579.249	11.94783009
579.443	11.9211623
579.636	11.92653728
579.83	11.93182097
580.024	11.94043599
580.218	11.92825398
580.411	11.9265753
580.605	11.91054893
580.799	11.9192276
580.992	11.91356604
581.186	11.90885002
581.38	11.9020481
581.573	11.90114219
581.767	11.90130871
581.961	11.90193785
582.154	11.90669983
582.348	11.88470963
582.541	11.898195
582.735	11.89355191
582.928	11.90014421
583.122	11.89787369
583.315	11.89132549
583.509	11.88805362
583.702	11.8860094
583.896	11.87206012
584.089	11.86962244
584.283	11.86985245
584.476	11.85294227
584.67	11.85561182
584.863	11.83889988
585.056	11.83272042
585.25	11.82744281
585.443	11.8217267
585.636	11.81815372
585.83	11.82618268
586.023	11.84105536
586.216	11.83456749
586.41	11.8273802
586.603	11.80790491
586.796	11.79515075
586.989	11.78618135
587.183	11.80195654
587.376	11.80103781
587.569	11.80359331
587.762	11.8044098
587.955	11.79459497
588.149	11.79359213
588.342	11.79030654
588.535	11.80495394
588.728	11.79504807
588.921	11.80142645
589.114	11.82166895
589.307	11.81685416
589.5	11.83323942
589.693	11.84034396
589.886	11.83976124
590.08	11.81943281
590.273	11.83905889
590.466	11.84627332
590.659	11.84995378
590.852	11.85368036
591.044	11.83772602
591.237	11.81312118
591.43	11.81133774
591.623	11.82553356
591.816	11.81569682
592.009	11.84706337
592.202	11.85207439
592.395	11.86982441
592.588	11.85039994
592.781	11.87030306
592.973	11.86988346
593.166	11.84835916
593.359	11.85686357
593.552	11.84398863
593.745	11.83263079
593.937	11.83138962
594.13	11.83323718
594.323	11.83000399
594.515	11.83944554
594.708	11.83362518
594.901	11.8217697
595.094	11.83448021
595.286	11.82846982
595.479	11.81622032
595.672	11.78452299
595.864	11.77051296
596.057	11.76898348
596.249	11.76551972
596.442	11.73647128
596.635	11.75093098
596.827	11.74634416
597.02	11.72656796
597.212	11.73910744
597.405	11.71093613
597.597	11.69547245
597.79	11.66311595
597.982	11.63460457
598.175	11.62117599
598.367	11.61059972
598.559	11.60443652
598.752	11.59746415
598.944	11.58968794
599.137	11.59249704
599.329	11.59121584
599.521	11.60232446
599.714	11.58705227
599.906	11.62798871
600.098	11.58204898
600.291	11.58206588
600.483	11.57905534
600.675	11.57031309
600.868	11.53723949
601.06	11.53116029
601.252	11.48903629
601.444	11.467325
601.637	11.45592793
601.829	11.46603659
602.021	11.45797489
602.213	11.45833757
602.405	11.43648032
602.597	11.41204336
602.789	11.41246523
602.982	11.41390769
603.174	11.39678995
603.366	11.38375918
603.558	11.37131007
603.75	11.3891925
603.942	11.37766789
604.134	11.37609059
604.326	11.36855943
604.518	11.36905818
604.71	11.36742919
604.902	11.37470878
605.094	11.37384437
605.286	11.38145227
605.478	11.38913209
605.67	11.38933439
605.862	11.38865073
606.054	11.38425767
606.246	11.38095255
606.437	11.39094323
606.629	11.40246237
606.821	11.40031377
607.013	11.40672876
607.205	11.41184006
607.397	11.4209749
607.588	11.42815331
607.78	11.42329736
607.972	11.42655283
608.164	11.43569294
608.355	11.43487444
608.547	11.43413663
608.739	11.4305273
608.93	11.42897292
609.122	11.43009135
609.314	11.4267222
609.505	11.42787179
609.697	11.43380899
609.889	11.44002108
610.08	11.44909194
610.272	11.45918375
610.463	11.45770744
610.655	11.45533687
610.847	11.45748453
611.038	11.45714056
611.23	11.46368191
611.421	11.46540984
611.613	11.46575196
611.804	11.46783118
611.996	11.47046396
612.187	11.47407148
612.379	11.48365621
612.57	11.49403176
612.761	11.50228202
612.953	11.50811736
613.144	11.51458056
613.336	11.52924374
613.527	11.53216899
613.718	11.53163826
613.91	11.53574638
614.101	11.53684231
614.292	11.53589692
614.483	11.53762792
614.675	11.5391265
614.866	11.53563272
615.057	11.53627851
615.248	11.53415804
615.44	11.54438546
615.631	11.55522214
615.822	11.55139634
616.013	11.56061006
616.204	11.56867873
616.396	11.57554795
616.587	11.58802347
616.778	11.60540673
616.969	11.62007366
617.16	11.62667777
617.351	11.62846125
617.542	11.63954356
617.733	11.65874478
617.924	11.66271209
618.115	11.6718206
618.306	11.70235695
618.497	11.72229896
618.688	11.75496163
618.879	11.79124151
619.07	11.81636149
619.261	11.83653354
619.452	11.85454996
619.643	11.8748982
619.834	11.9159384
620.025	11.9387836
620.216	11.96195783
620.407	11.99219285
620.597	12.01071462
620.788	12.02519379
620.979	12.04939748
621.17	12.08442707
621.361	12.12302449
621.551	12.16261522
621.742	12.19765204
621.933	12.25699768
622.124	12.31221396
622.314	12.31659974
622.505	12.35748366
622.696	12.375013
622.886	12.42018222
623.077	12.44870973
623.268	12.49633783
623.458	12.52779405
623.649	12.53907695
623.84	12.56935718
624.03	12.59820326
624.221	12.62432373
624.411	12.64036786
624.602	12.66333075
624.792	12.69136822
624.983	12.710244
625.173	12.75636446
625.364	12.77737131
625.554	12.8023745
625.745	12.80900801
625.935	12.8193099
626.126	12.81772353
626.316	12.84067946
626.507	12.84548221
626.697	12.8720346
626.887	12.86971681
627.078	12.88011918
627.268	12.88127275
627.458	12.8937425
627.649	12.94393575
627.839	12.94596163
628.029	12.9639993
628.22	13.00014264
628.41	13.01903576
628.6	13.03755295
628.79	13.04126134
628.981	13.04719381
629.171	13.0262203
629.361	13.02759631
629.551	13.04184292
629.741	13.09243101
629.932	13.11385171
630.122	13.14336569
630.312	13.17077638
630.502	13.21891968
630.692	13.2203559
630.882	13.21459076
631.072	13.24626104
631.262	13.28289849
631.452	13.30836566
631.642	13.30252167
631.832	13.33607099
632.022	13.35424252
632.212	13.35801943
632.402	13.3856539
632.592	13.41489973
632.782	13.44309376
632.972	13.45514167
633.162	13.50617231
633.352	13.57100724
633.542	13.58827976
633.732	13.57577113
633.922	13.56548814
634.111	13.58682852
634.301	13.61906127
634.491	13.5936909
634.681	13.65428032
634.871	13.7347479
635.06	13.72650105
635.25	13.77205846
635.44	13.77722956
635.63	13.8055232
635.819	13.87046448
636.009	13.90797344
636.199	13.91467255
636.388	13.97784058
636.578	13.99358887
636.768	14.04828482
636.957	14.15783853
637.147	14.16420242
637.337	14.1633281
637.526	14.2318564
637.716	14.29038486
637.905	14.44176439
638.095	14.46177331
638.284	14.46701215
638.474	14.5322976
638.663	14.57200598
638.853	14.63415461
639.042	14.73600013
639.232	14.80331424
639.421	14.88716702
639.611	14.98360371
639.8	14.99611459
639.99	15.07671719
640.179	15.1035686
640.368	15.22420117
640.558	15.31499403
640.747	15.48116919
640.936	15.57074244
641.126	15.67425582
641.315	15.81412491
641.504	15.88339454
641.694	15.98972725
641.883	15.96475612
642.072	16.07222315
642.261	16.16636997
642.451	16.19357196
642.64	16.21664789
642.829	16.24078311
643.018	16.35065538
643.207	16.36923991
643.397	16.43404765
643.586	16.52593455
643.775	16.57311448
643.964	16.61731386
644.153	16.73131555
644.342	16.69302366
644.531	16.74326028
644.72	16.65953143
644.909	16.64567972
645.098	16.6825465
645.287	16.74598814
645.476	16.72096782
645.665	16.7387207
645.854	16.79323534
646.043	16.8906559
646.232	17.02147408
646.421	17.03459221
646.61	17.14212865
646.799	17.2227152
646.988	17.20705839
647.177	17.1997092
647.365	17.25034648
647.554	17.29131264
647.743	17.33379593
647.932	17.34159912
648.121	17.3247012
648.309	17.34122709
648.498	17.41413833
648.687	17.49593651
648.876	17.50358264
649.064	17.52491299
649.253	17.38830078
649.442	17.44266544
649.63	17.50518924
649.819	17.48695892
650.008	17.41927734
650.196	17.32559471
650.385	17.40567608
650.574	17.33023779
650.762	17.27074765
650.951	17.32168466
651.139	17.35135025
651.328	17.38380892
651.516	17.33742485
651.705	17.36911364
651.893	17.42528409
652.082	17.48740174
652.27	17.5129117
652.459	17.43893312
652.647	17.465719
652.836	17.49020135
653.024	17.58147887
653.213	17.76649746
653.401	17.83770135
653.589	17.84575916
653.778	17.91532821
653.966	18.01974049
654.154	18.11415014
654.343	18.11886227
654.531	18.14367227
654.719	18.18329487
654.908	18.16827348
655.096	18.21655278
655.284	18.1989887
655.472	18.24121705
655.661	18.23324901
655.849	18.16298439
656.037	18.13726304
656.225	18.12556485
656.413	18.17270536
656.601	18.17722631
656.79	18.2101636
656.978	18.24121953
657.166	18.20980922
657.354	18.22111838
657.542	18.20311627
657.73	18.21991532
657.918	18.25012235
658.106	18.26403501
658.294	18.29034145
658.482	18.28602612
658.67	18.2179936
658.858	18.28777667
659.046	18.2978439
659.234	18.32075757
659.422	18.37302076
659.61	18.39127193
659.798	18.52121378
659.986	18.56260435
660.173	18.56803654
660.361	18.49228815
660.549	18.63192564
660.737	18.7031431
660.925	18.65909651
661.113	18.68261896
661.3	18.69928571
661.488	18.67459204
661.676	18.58371246
661.864	18.59806598
662.051	18.55731679
662.239	18.54759905
662.427	18.59405053
662.614	18.65792895
662.802	18.56780858
662.99	18.45677906
663.177	18.50837493
663.365	18.44025339
663.553	18.50720424
663.74	18.38018818
663.928	18.29050576
664.115	18.343182
664.303	18.42838884
664.49	18.39184886
664.678	18.41918441
664.866	18.3187511
665.053	18.26252983
665.24	18.23784363
665.428	18.1264713
665.615	18.2301788
665.803	18.04696337
665.99	17.98127868
666.178	17.99330392
666.365	18.13616819
666.552	18.12682481
666.74	18.15201317
666.927	18.26134766
667.114	18.14545804
667.302	18.18356288
667.489	18.05997972
667.676	18.06501408
667.864	18.00910591
668.051	17.91560482
668.238	17.96692386
668.425	17.88916399
668.613	17.84998677
668.8	18.07013843
668.987	17.99784216
669.174	17.95641983
669.361	18.22363909
669.548	18.0805753
669.736	18.13612387
669.923	18.10249072
670.11	17.98238734
670.297	17.92265349
670.484	18.04467984
670.671	18.10664138
670.858	18.1291031
671.045	18.06374587
671.232	17.9301055
671.419	17.89623602
671.606	18.04751411
671.793	18.32115105
671.98	18.23821505
672.167	18.17678124
672.354	17.94032698
672.541	17.8123318
672.728	17.75620128
672.915	17.75712647
673.101	17.68038578
673.288	17.51866523
673.475	17.60412465
673.662	17.61455848
673.849	17.83236843
674.035	17.91624892
674.222	17.71230617
674.409	17.5448432
674.596	17.33623376
674.783	17.0980674
674.969	17.10486982
675.156	17.1369507
675.343	17.33428875
675.529	17.08787738
675.716	16.79308743
675.903	16.86611279
676.089	16.83683457
676.276	16.82068979
676.462	17.05824066
676.649	16.79961407
676.836	16.81135647
677.022	16.87295567
677.209	16.75752749
677.395	16.68540798
677.582	16.80373585
677.768	16.6686699
677.955	16.50456374
678.141	16.54281374
678.328	16.70106794
678.514	16.7725332
678.701	16.94239749
678.887	16.95717007
679.073	16.94891083
679.26	16.70806544
679.446	16.80574772
679.632	16.84118213
679.819	16.77633787
680.005	16.77163712
680.191	16.80062381
680.378	16.66246437
680.564	16.78461242
680.75	16.85105276
680.936	16.73932467
681.123	16.77275361
681.309	16.77615974
681.495	16.56967968
681.681	16.56249498
681.867	16.73073709
682.054	16.78444622
682.24	16.58481872
682.426	16.56729884
682.612	16.50613252
682.798	16.46046026
682.984	16.54031623
683.17	16.71442879
683.356	16.68502854
683.542	16.70337356
683.728	16.84876259
683.914	16.80183246
684.1	16.76923758
684.286	16.5928518
684.472	16.52741752
684.658	16.46870223
684.844	16.47107848
685.03	16.36726687
685.216	16.49999185
685.402	16.72105147
685.588	16.67879633
685.774	16.42085576
685.96	16.38008246
686.145	16.34381689
686.331	16.30487613
686.517	16.28026076
686.703	16.36818482
686.889	16.27451766
687.074	16.10871279
687.26	16.13488612
687.446	16.0895243
687.631	15.98879703
687.817	16.01706433
688.003	15.99997063
688.189	16.08468559
688.374	15.95875466
688.56	15.92049436
688.745	16.02741367
688.931	16.08567265
689.117	15.84192862
689.302	15.78560882
689.488	15.92579256
689.673	16.00541869
689.859	16.02448982
690.044	16.14020917
690.23	16.27252395
690.415	16.34508748
690.601	16.39955697
690.786	16.26722385
690.972	16.33625888
691.157	16.34265753
691.343	16.42615638
691.528	16.37561779
691.713	16.26634936
691.899	16.32669599
692.084	16.38756335
692.269	16.59015911
692.455	16.54653233
692.64	16.56366012
692.825	16.94540356
693.011	17.17395578
693.196	17.07175401
693.381	16.88152878
693.566	16.72954265
693.752	16.78466792
693.937	16.67572227
694.122	16.51331912
694.307	16.40144059
694.492	16.30504109
694.678	16.4968326
694.863	16.44010502
695.048	16.6242953
695.233	16.73391534
695.418	17.07793539
695.603	17.06449819
695.788	17.11285326
695.973	17.13772101
696.158	16.97358487
696.343	17.17045589
696.528	16.97529654
696.713	16.65316236
696.898	16.45705605
697.083	16.38648063
697.268	16.30167035
697.453	16.41370846
697.638	16.51421882
697.823	16.67088432
698.008	16.79560017
698.192	16.77794316
698.377	16.81697781
698.562	16.80395838
698.747	16.85084401
698.932	16.4903443
699.117	16.36392687
699.301	16.15475855
699.486	16.24899772
699.671	16.41070615
699.856	16.40172307
700.04	16.44999714
700.225	16.34546027
700.41	16.31460323
700.594	16.35948207
700.779	16.32568746
700.964	16.30790212
701.148	16.40942114
701.333	16.48268368
701.517	16.305054
701.702	16.31252385
701.887	16.31117675
702.071	16.28124291
702.256	16.2430097
702.44	16.31100241
702.625	16.29628904
702.809	16.41786551
702.994	16.45979362
703.178	16.43850953
703.362	16.4801492
703.547	16.40606007
703.731	16.4253056
703.916	16.44888158
704.1	16.46196627
704.284	16.52610711
704.469	16.47924439
704.653	16.58693975
704.837	16.64038399
705.022	16.54401757
705.206	16.52348267
705.39	16.61105003
705.575	16.6054741
705.759	16.54519008
705.943	16.58590877
706.127	16.63416451
706.311	16.60043578
706.496	16.64108709
706.68	16.66046306
706.864	16.66982656
707.048	16.71946835
707.232	16.71021846
707.416	16.7563387
707.6	16.76179029
707.785	16.77422164
707.969	16.83196289
708.153	16.77196111
708.337	16.79695017
708.521	16.74652638
708.705	16.68890961
708.889	16.77254873
709.073	16.83641784
709.257	16.83739701
709.441	16.89493148
709.624	17.02899858
709.808	17.07311764
709.992	17.09673087
710.176	17.20272499
710.36	17.17948607
710.544	17.2254027
710.728	17.23971619
710.912	17.28713184
711.095	17.2938131
711.279	17.18621115
711.463	17.20050737
711.647	17.12765687
711.83	17.16676531
712.014	17.25424381
712.198	17.32308131
712.382	17.38308612
712.565	17.40907113
712.749	17.41867508
712.933	17.38844053
713.116	17.43915753
713.3	17.40872994
713.483	17.29701552
713.667	17.33829354
713.851	17.31498392
714.034	17.09703123
714.218	17.18029958
714.401	16.9267217
714.585	16.89022869
714.768	16.96382254
714.952	17.07869087
715.135	17.14582206
715.319	17.11802157
715.502	17.37187296
715.686	17.46871479
715.869	17.31996164
716.052	17.25002731
716.236	17.06652302
716.419	17.29263527
716.602	17.30786057
716.786	17.696067
716.969	17.53188794
717.152	17.48778193
717.336	17.82647453
717.519	17.61677336
717.702	17.50788757
717.885	17.60079862
718.069	17.72911415
718.252	18.30363592
718.435	18.95276344
718.618	18.79840014
718.801	18.46421147
718.985	19.45456263
719.168	19.05106482
719.351	18.33918981
719.534	17.95219822
719.717	18.40526568
719.9	18.39840541
720.083	19.10096566
720.266	18.81147481
720.449	19.22055713
720.632	18.30483551
720.815	18.67202505
720.998	18.7639502
721.181	18.18507341
721.364	18.81208789
721.547	19.47064571
721.73	18.99546489
721.913	18.6908304
722.096	17.67729618
722.279	16.95182309
722.461	16.91873736
722.644	17.04735478
722.827	16.2643113
723.01	16.77353784
723.193	17.31991427
723.376	17.91747127
723.558	17.82542287
723.741	18.99315237
723.924	17.6842224
724.107	17.57123088
724.289	16.90815723
724.472	17.60947691
724.655	18.09242312
724.837	18.87424187
725.02	19.25165049
725.203	18.8936443
725.385	17.33864153
725.568	17.97484537
725.75	17.68242793
725.933	18.03142312
726.115	18.12034515
726.298	18.35471031
726.481	19.04071734
726.663	18.98116522
726.845	19.79624644
727.028	20.44101173
727.21	19.24608233
727.393	20.30365769
727.575	19.45303923
727.758	20.17780665
727.94	20.91541964
728.122	20.12514763
728.305	20.17744886
728.487	20.48730195
728.67	19.48041011
728.852	18.95043732
729.034	19.10030603
729.216	20.53340183
729.399	20.16304699
729.581	19.20671178
729.763	19.77837689
729.945	19.37488072
730.128	19.45504552
730.31	18.89279627
730.492	19.34909847
730.674	19.2283543
730.856	18.25670211
731.039	19.68177996
731.221	19.48427112
731.403	19.42872768
731.585	18.13738972
731.767	18.35515736
731.949	19.22849753
732.131	18.56646098
732.313	18.16220793
732.495	17.5043958
732.677	17.86097556
732.859	18.19146168
733.041	17.62120698
733.223	18.13463196
733.405	18.57174397
733.587	17.93505479
733.769	18.64319314
733.951	17.87625189
734.132	18.02859962
734.314	16.36391715
734.496	15.34028061
734.678	16.43943016
734.86	14.18116674
735.042	14.0496181
735.223	13.08908454
735.405	14.44723384
735.587	13.18948403
735.769	12.38505478
735.95	14.10713956
736.132	13.59429058
736.314	14.43556354
736.495	14.27038818
736.677	14.72509478
736.859	14.93805998
737.04	15.66717032
737.222	15.99841617
737.403	16.21412214
737.585	16.44175347
737.767	15.81794981
737.948	15.84220202
738.13	17.53395749
738.311	18.34894207
738.493	17.29398608
738.674	18.33950238
738.856	17.3454951
739.037	17.70491262
739.219	17.71988987
739.4	18.54212177
739.581	19.89420908
739.763	19.41923183
739.944	19.70999721
740.125	21.11808329
740.307	21.28118963
740.488	20.19694828
740.669	20.17299062
740.851	19.07405882
741.032	19.48284139
741.213	18.35923805
741.395	18.24222647
741.576	19.02236018
741.757	18.28145701
741.938	17.4118415
742.119	17.35444139
742.301	18.48329966
742.482	18.86995608
742.663	19.6759936
742.844	20.26312575
743.025	20.35109496
743.206	19.94676604
743.387	19.74687652
743.568	19.32303588
743.749	19.81729884
743.93	18.31016946
744.111	18.09965579
744.292	19.36771985
744.473	19.07783339
744.654	20.89665513
744.835	21.29586406
745.016	23.8533306
745.197	23.29613797
745.378	24.7403855
745.559	25.73797121
745.74	26.75913587
745.921	26.6278737
746.102	25.7017358
746.282	26.13785665
746.463	26.57880823
746.644	26.18545318
746.825	25.67613762
747.006	27.66351752
747.186	27.9338776
747.367	27.78771984
747.548	27.58684748
747.728	26.56844009
747.909	27.30262473
748.09	26.1272047
748.27	26.87632645
748.451	25.21663965
748.632	25.00704943
748.812	24.27927433
748.993	24.67846199
749.173	23.71442157
749.354	22.86353265
749.535	22.22597877
749.715	22.80614438
749.896	23.84357847
750.076	23.02953191
750.257	22.1450253
750.437	22.85244647
750.618	22.95412722
750.798	21.9084456
750.978	20.66271257
751.159	20.35351652
751.339	20.30346344
751.52	20.45320067
751.7	19.84523269
751.88	20.42081614
752.061	20.97005501
752.241	21.64151717
752.421	21.80778773
752.601	22.09631126
752.782	21.91714735
752.962	22.66923835
753.142	23.85334594
753.322	25.05060201
753.503	25.89309864
753.683	25.42706003
753.863	26.36269996
754.043	27.80738604
754.223	27.93682132
754.403	29.43725676
754.583	29.24087622
754.764	29.44852703
754.944	30.69986746
755.124	30.37390402
755.304	31.82759773
755.484	32.03558252
755.664	31.93998588
755.844	32.77345444
756.024	33.29623705
756.204	31.2731826
756.384	30.61418747
756.564	32.16433592
756.743	32.09643862
756.923	32.17459042
757.103	30.8798795
757.283	30.23684547
757.463	31.93149234
757.643	30.32322124
757.823	30.75389971
758.002	30.87338665
758.182	30.55430015
758.362	29.16064662
758.542	30.11866642
758.721	28.17661577
758.901	29.55430782
759.081	29.16926921
759.261	28.78209529
759.44	30.67790541
759.62	28.32366703
759.8	28.39700227
759.979	30.29789833
760.159	29.98572508
760.338	27.78261236
760.518	28.97054272
760.698	29.58960833
760.877	29.6091308
761.057	29.26142024
761.236	27.54069386
761.416	30.82000288
761.595	30.18764276
761.775	30.45928594
761.954	30.6427591
762.133	32.9088145
762.313	35.15918011
762.492	35.38014246
762.672	35.27590173
762.851	35.57161823
763.03	37.02036193
763.21	36.06252326
763.389	37.65423263
763.568	38.09376668
763.748	38.30826113
763.927	40.61879874
764.106	41.33563455
764.286	40.0506865
764.465	38.57818314
764.644	39.05219287
764.823	38.66889912
765.002	39.44585507
765.182	36.47255038
765.361	36.70173114
765.54	36.31936611
765.719	36.14948975
765.898	34.62751227
766.077	32.76091623
766.256	33.9782083
766.435	33.11822753
766.614	32.96646975
766.793	34.24196264
766.972	33.71015517
767.151	32.0482441
767.33	32.71151859
767.509	34.64975122
767.688	33.75428371
767.867	33.92118147
768.046	34.18642313
768.225	34.22515916
768.404	35.76568682
768.583	36.29025855
768.762	37.50738334
768.94	37.30840835
769.119	36.43300074
769.298	37.20089251
769.477	37.47526915
769.656	39.30215217
769.834	37.94500273
770.013	38.27958644
770.192	38.88390454
770.37	39.77924718
770.549	40.10461846
770.728	40.26270111
770.906	42.75926172
771.085	42.89771966
771.264	40.74537201
771.442	39.61297817
771.621	39.53023488
771.799	38.86960439
771.978	39.81430337
772.157	39.42045123
772.335	38.60536561
772.514	37.25929365
772.692	39.69961161
772.871	41.3991362
773.049	40.70362886
773.228	40.66840875
773.406	39.69355932
773.584	42.35473597
773.763	41.81309795
773.941	42.59385852
774.119	42.7811446
774.298	43.01170771
774.476	43.68119173
774.655	42.55498464
774.833	41.9511522
775.011	41.21857786
775.189	42.57437104
775.368	42.16289619
775.546	42.08099615
775.724	42.51715452
775.902	43.24268705
776.08	43.9017817
776.259	44.50822354
776.437	42.4955874
776.615	39.75499446
776.793	38.65943666
776.971	38.41028675
777.149	40.15564448
777.327	40.0019588
777.505	39.68008754
777.683	37.66276578
777.861	36.13885387
778.04	35.72625974
778.218	35.48703528
778.395	34.44870912
778.573	32.32136486
778.751	33.40288872
778.929	32.34388671
779.107	32.71829097
779.285	34.33461179
779.463	32.83824553
779.641	31.55971157
779.819	33.28959885
779.997	31.0496729
780.174	33.3421287
780.352	36.59604098
780.53	36.44571391
780.708	36.14177613
780.886	35.75622396
781.063	32.77456093
781.241	33.49663197
781.419	33.65831465
781.596	35.3663022
781.774	33.5283262
781.952	34.69606547
782.129	35.68409263
782.307	36.93209393
782.485	37.9136183
782.662	37.63112722
782.84	39.80162865
783.017	41.68411902
783.195	40.78423645
783.372	40.08999878
783.55	38.2145046
783.727	39.30676338
783.905	39.82939354
784.082	39.06392595
784.26	39.19564344
784.437	41.90927556
784.615	41.95609511
784.792	46.58899427
784.969	48.4293063
785.147	49.68458239
785.324	48.47711928
785.501	47.16107746
785.679	47.83432189
785.856	49.01842039
786.033	48.30754114
786.211	47.77516392
786.388	49.75917374
786.565	48.11592737
786.742	44.76420069
786.92	47.1902575
787.097	46.67267538
787.274	49.21565602
787.451	49.88585054
787.628	46.95440667
787.805	46.18064583
787.982	48.1732001
788.16	46.2734696
788.337	45.89144857
788.514	43.08200051
788.691	43.3835162
788.868	43.99022553
789.045	42.7656783
789.222	44.07891171
789.399	44.63679016
789.576	45.73292915
789.753	47.82201405
789.93	48.49807445
790.106	46.62685359
790.283	46.92579154
790.46	48.01621054
790.637	47.27992571
790.814	48.68695078
790.991	47.4948282
791.168	50.66312997
791.344	52.64259817
791.521	53.79929633
791.698	54.71350355
791.875	53.30576293
792.051	55.92223493
792.228	58.89315246
792.405	58.20281601
792.581	56.54193276
792.758	59.54714608
792.935	59.13468967
793.111	54.19855169
793.288	52.92427226
793.465	52.63186309
793.641	53.10018407
793.818	56.04664785
793.994	55.27608355
794.171	55.25124364
794.347	56.99455119
794.524	55.36581282
794.7	52.5089507
794.877	49.43751049
795.053	50.76257556
795.23	53.35738517
795.406	54.15144742
795.583	53.52747926
795.759	50.28230006
795.935	51.83026874
796.112	48.31149339
796.288	51.88272492
796.464	51.62463208
796.641	51.57293748
796.817	54.78212601
796.993	57.55279434
797.169	56.10697251
797.346	57.18077596
797.522	57.68915149
797.698	57.63753875
797.874	56.06269464
798.051	56.74569503
798.227	59.9560066
798.403	62.74816873
798.579	64.3094966
798.755	62.96450722
798.931	60.59487286
799.107	61.48309254
799.283	64.89854041
799.459	67.85620157
799.635	65.10972953
799.811	68.97434558
799.987	66.34481334
800.163	65.69770402
800.339	66.9276831
800.515	66.18326001
800.691	62.32111791
800.867	62.93186589
801.043	64.12965715
801.219	63.77429537
801.395	64.63349701
801.571	69.7999646
801.746	67.53128968
801.922	66.06608369
802.098	66.52980785
802.274	67.22684384
802.45	68.33272146
802.625	69.84246062
802.801	69.99468162
802.977	67.05487833
803.152	64.3356336
803.328	66.62894505
803.504	65.68647839
803.679	69.40059149
803.855	71.51653838
804.031	69.71375056
804.206	70.61861675
804.382	73.45605928
804.557	73.36639329
804.733	72.80098375
804.909	74.85324023
805.084	73.04985889
805.26	69.90445272
805.435	73.31511503
805.61	75.18203652
805.786	75.58392285
805.961	74.09603078
806.137	73.09119936
806.312	72.48969464
806.488	71.05446213
806.663	73.37085949
806.838	74.50167924
807.014	75.33196441
807.189	73.95432749
807.364	72.19505109
807.54	69.29524544
807.715	72.5650892
807.89	71.49413299
808.065	72.51581203
808.241	74.79045433
808.416	72.65040125
808.591	69.6138497
808.766	73.79039251
808.941	75.81940001
809.116	71.25981778
809.291	68.03535968
809.467	70.01416335
809.642	72.258734
809.817	76.9480744
809.992	77.43879185
810.167	82.63841422
810.342	79.66490705
810.517	75.59849126
810.692	70.93086554
810.867	69.8435935
811.042	68.80326047
811.217	70.01637172
811.392	71.57984894
811.567	77.27092738
811.741	75.93270504
811.916	75.64598973
812.091	77.85720088
812.266	77.24511028
812.441	71.77094924
812.616	68.09020687
812.79	77.03110192
812.965	79.16341907
813.14	76.82003494
813.315	76.73134972
813.489	73.67014398
813.664	70.71809994
813.839	67.59996716
814.013	71.10095555
814.188	77.10614424
814.363	81.70481874
814.537	82.17509421
814.712	84.13182208
814.887	84.49265493
815.061	79.79373185
815.236	73.13372034
815.41	66.15516686
815.585	63.62671197
815.759	65.54346678
815.934	66.81980602
816.108	68.90151131
816.283	69.86415016
816.457	62.01151166
816.631	59.01845232
816.806	60.32339565
816.98	56.00272188
817.155	49.45625062
817.329	55.66999014
817.503	57.90252669
817.678	58.07430665
817.852	54.41544154
818.026	49.23400421
818.201	53.64185908
818.375	55.81734982
818.549	56.5743454
818.723	57.97976047
818.897	62.23545579
819.072	62.56094196
819.246	64.05443454
819.42	57.56506396
819.594	62.81082916
819.768	71.2479713
819.942	75.55169849
820.116	74.61781121
820.29	73.40108073
820.465	72.85769083
820.639	75.15687609
820.813	80.19027952
820.987	74.8794421
821.161	69.76010564
821.335	65.52222624
821.509	69.25396711
821.682	71.21577218
821.856	71.31676208
822.03	66.66903359
822.204	70.40522509
822.378	69.55875062
822.552	69.21194674
822.726	72.13793103
822.9	73.4123866
823.073	77.48595608
823.247	70.73281404
823.421	65.3376729
823.595	66.37351267
823.768	65.26868687
823.942	70.13589938
824.116	70.2681861
824.289	73.4972446
824.463	73.08830121
824.637	76.50759414
824.81	77.2064814
824.984	82.26983976
825.158	78.21893436
825.331	79.74480236
825.505	78.26127383
825.678	85.01412842
825.852	79.3983204
826.025	78.08777766
826.199	79.78410206
826.372	82.4569408
826.546	80.92802338
826.719	83.3567685
826.893	86.24662043
827.066	82.50276855
827.24	74.18934757
827.413	72.33959819
827.586	63.86271088
827.76	70.64898636
827.933	63.94733604
828.106	57.60561646
828.28	55.12044618
828.453	53.57959331
828.626	52.4655069
828.799	56.12055066
828.973	46.73104528
829.146	51.42177126
829.319	40.92438022
829.492	39.85091042
829.665	44.82011792
829.839	47.70478121
830.012	41.94835421
830.185	37.32290604
830.358	32.12987926
830.531	24.40397748
830.704	37.13311412
830.877	34.46929357
831.05	34.15925217
831.223	38.9224775
831.396	29.01212339
831.569	29.98178506
831.742	32.48760235
831.915	28.32033523
832.088	32.96717667
832.261	38.52426674
832.434	40.77928671
832.607	40.95081518
832.779	39.20527901
832.952	48.22015726
833.125	48.35269993
833.298	45.10466779
833.471	41.61918643
833.643	43.10321982
833.816	48.22048053
833.989	50.7464694
834.162	59.92080328
834.334	52.11123868
834.507	55.56963629
834.68	63.94144948
834.852	60.95945174
835.025	64.93067692
835.198	70.81534476
835.37	70.50060395
835.543	81.06090373
835.715	77.5391695
835.888	75.35407606
836.061	78.2655374
836.233	83.88045652
836.406	76.67618504
836.578	73.81526104
836.751	73.212856
836.923	77.18621719
837.095	81.69177289
837.268	84.82085527
837.44	80.20897357
837.613	82.67939201
837.785	78.51436747
837.957	84.49633089
838.13	83.17341121
838.302	79.65676015
838.474	88.98634076
838.647	87.20599251
838.819	78.57251099
838.991	83.83922384
839.163	75.01169864
839.336	78.36711498
839.508	79.68837995
839.68	75.36152297
839.852	73.07490833
840.024	83.20167661
840.196	89.71173754
840.368	89.68336554
840.541	79.42057942
840.713	70.57087877
840.885	73.79423418
841.057	78.56851827
841.229	77.75935903
841.401	79.02248553
841.573	73.60537799
841.745	87.75706554
841.917	95.31191864
842.089	85.08934073
842.261	86.94476632
842.432	88.60103627
842.604	85.15306793
842.776	86.97376839
842.948	88.43715032
843.12	85.1686573
843.292	92.64926903
843.464	97.32973702
843.635	100.30141115
843.807	91.91670092
843.979	104.87361889
844.151	110.63538016
844.322	110.25404157
844.494	101.81589607
844.666	101.50418618
844.837	99.44642151
845.009	102.05733096
845.181	108.42623426
845.352	94.49951138
845.524	93.68056557
845.695	90.90532135
845.867	92.92970337
846.039	102.04739868
846.21	107.43896444
846.382	104.35711235
846.553	105.98555212
846.725	105.57664616
846.896	103.31257453
847.068	90.80068143
847.239	87.36577883
847.41	88.63112196
847.582	84.90911469
847.753	85.69343066
847.925	78.35121554
848.096	76.59055005
848.267	78.36102192
848.439	76.64077966
848.61	72.26902756
848.781	70.33015407
848.952	73.32029613
849.124	75.77700348
849.295	82.99926847
849.466	82.48790386
849.637	74.98057498
849.808	78.53264653
849.98	79.45183523
850.151	64.15550895
850.322	62.60221697
850.493	52.96589623
850.664	62.12624585
850.835	61.97154879
851.006	60.6277245
851.177	55.51284291
851.348	58.04707934
851.519	69.12751678
851.69	77.94036949
851.861	76.03853101
852.032	64.9937039
852.203	71.25530625
852.374	72.53053353
852.545	80.4765565
852.716	73.05464618
852.887	65.28534217
853.057	74.36121424
853.228	69.52187182
853.399	71.44087874
853.57	72.85623544
853.741	97.43211955
853.911	97.07238821
854.082	121.8799547
854.253	102.12093023
854.424	99.81854473
854.594	120.29254702
854.765	137.51070511
854.936	158.48877648
855.106	137.8203399
855.277	136.8798394
855.447	125.19951632
855.618	141.72065302
855.789	141.62436548
855.959	132.97542353
856.13	116.15642899
856.3	117.10960233
856.471	122.03758655
856.641	113.81205349
856.812	118.29700019
856.982	120.61024755
857.153	107.78712581
857.323	88.96425298
857.493	90.56058563
857.664	82.52578323
857.834	83.94506275
858.004	69.57522494
858.175	67.14915041
858.345	70.66351644
858.515	64.74634566
858.686	60.25236593
858.856	59.47153682
859.026	68.17451206
859.196	68.59228363
859.367	64.84426051
859.537	57.11542565
859.707	74.54199381
859.877	65.93591906
860.047	65.83384115
860.217	53.38565432
860.387	51.32479382
860.558	51.21264278
860.728	64.83943241
860.898	62.59650228
861.068	62.50863379
861.238	57.4406713
861.408	57.23121463
861.578	65.76815828
861.748	67.31411605
861.918	60.40747029
862.088	61.80072824
862.257	61.11906598
862.427	64.44299816
862.597	68.86740635
862.767	69.56669306
862.937	69.21616204
863.107	76.04830594
863.277	66.05353012
863.446	63.4745461
863.616	68.42654152
863.786	74.3810549
863.956	80.26248509
864.125	73.27665866
864.295	59.35272587
864.465	80.00420964
864.634	91.21393293
864.804	99.5311279
864.974	104.52488688
865.143	108.61435726
865.313	89.48031496
865.482	90.43902439
865.652	91.50759642
865.822	107.87496243
865.991	99.66744263
866.161	65.89022758
866.33	43.90998594
866.5	58.52682146
866.669	59.05378767
866.838	56.05526957
867.008	64.38090623
867.177	51.23780945
867.347	54.61857178
867.516	53.089701
867.685	71.00149477
867.855	72.04024834
868.024	49.13359419
868.193	41.8268467
868.363	45.82197273
868.532	60.35905603
868.701	57.21450064
868.87	60.67184281
869.04	65.94861975
869.209	65.11874149
869.378	57.12275215
869.547	58.10225998
869.716	64.25487826
869.885	82.98555377
870.055	90.03181336
870.224	90.07329843
870.393	89.34112885
870.562	75.60549858
870.731	85.173711
870.9	82.73520854
871.069	95.2598391
871.238	77.15507005
871.407	87.71348458
871.576	95.18776703
871.745	117.54004887
871.914	95.16856915
872.083	75.48884605
872.251	84.0342483
872.42	87.98492574
872.589	77.21886336
872.758	86.42078793
872.927	78.96058248
873.096	78.53051059
873.264	82.26676947
873.433	73.67537761
873.602	75.49988508
873.771	69.71246006
873.939	79.89968419
874.108	92.96978909
874.277	92.43582207
874.445	98.53045745
874.614	96.79349127
874.783	100.66327659
874.951	105.53871033
875.12	129.44818304
875.288	126.89747004
875.457	142.73055464
875.625	142.19055602
875.794	142.39661348
875.962	166.42573184
876.131	195.50197913
876.299	161.65323784
876.468	184.7502481
876.636	176.82158921
876.805	160.88979354
876.973	165.72220511
877.141	175.35749917
877.31	170.3196347
877.478	242.58487195
877.647	278.47272727
877.815	267.39811912
877.983	210.77080143
878.151	182.04873197
878.32	191.98408186
878.488	177.42899851
878.656	142.25988701
878.824	119.49707199
878.992	144.66184602
879.161	147.79925956
879.329	155.7699053
879.497	114.75826972
879.665	109.08704883
879.833	109.32918703
880.001	182.27746592
880.169	202.85006196
880.337	124.20062696
880.505	140.66515495
880.673	57.76815777
880.841	60.06351727
881.009	54.9907919
881.177	56.46481178
881.345	52.28048402
881.513	62.46011024
881.681	71.80196029
881.849	68.2611997
882.017	60.46319272
882.185	56.92403876
882.352	48.16962668
882.52	51.37233158
882.688	47.62360447
882.856	36.60224978
883.024	67.31146622
883.191	57.21607769
883.359	63.91718699
883.527	61.09471425
883.694	82.39918844
883.862	88.73650423
884.03	97.09109467
884.197	138.12072554
884.365	161.21607695
884.533	167.61935693
884.7	185.49776094
884.868	161.03596173
885.035	170.44755723
885.203	144.78144514
885.37	157.17299578
885.538	156.69171295
885.705	151.97244834
885.873	161.00609441
886.04	160.9209454
886.208	160.64769382
886.375	199.31851852
886.542	199.80609907
886.71	207.70750988
886.877	185.9372655
