Data from carapace1_Reflection_09-44-28-629.txt Node
Date: Wed Dec 06 09:44:28 AEST 2023
User: uqkchene_local
Spectrometer: USB4E02642
Trigger mode: 4
Integration Time (sec): 1.700000E-2
Scans to average: 10
Electric dark correction enabled: true
Nonlinearity correction enabled: false
Boxcar width: 10
XAxis mode: Wavelengths
Number of Pixels in Spectrum: 3648
>>>>>Begin Spectral Data<<<<<
179.217	13.25757576
179.432	-77.10843373
179.647	6.97831978
179.862	-10.74879227
180.077	-11.3317757
180.293	1.83044316
180.508	-32.29166667
180.723	-47.60638298
180.938	2707.38993711
181.153	520.15192136
181.368	432.23238482
181.583	428.64089184
181.798	404.86946067
182.013	386.78725121
182.228	395.55178864
182.443	387.97740452
182.658	389.34971611
182.873	387.01049499
183.088	389.14880023
183.303	391.18587652
183.518	396.42251303
183.733	400.40482392
183.948	404.41710259
184.162	409.9132244
184.377	405.44482141
184.592	400.68261633
184.807	394.26828273
185.022	396.05160738
185.237	398.20008916
185.452	394.16182692
185.667	396.73647532
185.882	399.97653938
186.096	393.34101382
186.311	397.51021725
186.526	400.98099436
186.741	403.70296237
186.956	405.25136612
187.17	403.05306211
187.385	403.77957614
187.6	402.41445417
187.815	406.12970254
188.03	404.04005525
188.244	402.80260099
188.459	403.07377049
188.674	396.50251719
188.889	398.90527895
189.103	398.83625606
189.318	406.22680637
189.533	405.91216216
189.747	405.82843244
189.962	406.62982418
190.177	404.42232376
190.391	403.60766833
190.606	404.24840163
190.821	400.50815198
191.035	401.32827666
191.25	394.05617819
191.465	399.45360086
191.679	405.76264393
191.894	407.94698355
192.109	407.81911786
192.323	403.34810172
192.538	403.86588691
192.752	403.86415607
192.967	402.7621456
193.181	402.64537995
193.396	397.68215417
193.611	399.50388418
193.825	390.87293388
194.04	391.16564628
194.254	389.31701472
194.469	390.53123716
194.683	393.14255231
194.898	391.52301799
195.112	390.66424547
195.327	393.99869872
195.541	390.69329442
195.756	389.80167579
195.97	384.22599283
196.184	380.92913955
196.399	380.41201576
196.613	378.92824557
196.828	379.91985607
197.042	381.6429653
197.257	382.15226121
197.471	383.37567639
197.685	382.42395375
197.9	385.46995836
198.114	384.60916887
198.328	387.16880271
198.543	386.78212551
198.757	391.97019868
198.971	389.8
199.186	387.7363849
199.4	389.09994645
199.614	390.92215609
199.829	385.44305907
200.043	381.02605329
200.257	385.96056656
200.471	384.96848042
200.686	378.1583225
200.9	375.88054387
201.114	375.57489826
201.328	371.84883349
201.543	370.43313602
201.757	368.74206047
201.971	364.27070263
202.185	365.27786509
202.399	363.4841784
202.614	362.19015966
202.828	359.24996922
203.042	357.45997311
203.256	352.79916973
203.47	355.43024101
203.684	354.1573812
203.899	354.74398501
204.113	357.90057094
204.327	358.25120156
204.541	357.89706241
204.755	355.67906836
204.969	358.75929085
205.183	359.8678992
205.397	359.42035586
205.611	359.25684287
205.825	359.28762055
206.039	356.67719615
206.253	356.67116307
206.467	356.26537469
206.681	356.43110497
206.895	354.48725637
207.109	351.2212132
207.323	354.13820992
207.537	354.42842585
207.751	354.20534164
207.965	353.64006902
208.179	350.9682474
208.393	348.23665418
208.607	342.54746835
208.821	341.98294672
209.035	346.38825857
209.249	343.11113027
209.463	341.15243448
209.677	342.81538018
209.891	344.98636733
210.104	341.94629907
210.318	343.85667015
210.532	345.68568598
210.746	346.52241339
210.96	347.52925688
211.174	345.83091479
211.387	348.93258756
211.601	352.43819292
211.815	351.76010623
212.029	352.28036557
212.243	354.1250074
212.456	352.43459517
212.67	354.9493897
212.884	357.81746746
213.098	358.51790551
213.311	358.78910951
213.525	354.86329866
213.739	359.11738081
213.953	358.93511565
214.166	355.49770245
214.38	353.80959431
214.594	357.81156021
214.807	358.87334537
215.021	358.58514416
215.235	357.50074873
215.448	357.1020518
215.662	357.73057961
215.876	357.94878755
216.089	357.08045632
216.303	353.88310529
216.516	353.12072961
216.73	349.83065324
216.944	349.44369024
217.157	349.37107849
217.371	347.00335412
217.584	348.62857312
217.798	350.45411232
218.011	354.49737841
218.225	349.9510502
218.439	349.42973101
218.652	353.53101425
218.866	352.30840396
219.079	349.31133133
219.293	348.49815021
219.506	348.31788585
219.719	347.85802252
219.933	345.25576117
220.146	345.19147084
220.36	342.97875395
220.573	342.24088594
220.787	344.81422811
221	345.67371584
221.214	348.61387006
221.427	349.83769082
221.64	347.7568762
221.854	348.5759771
222.067	345.42788628
222.28	342.56178161
222.494	341.01012702
222.707	342.13895282
222.92	341.5468768
223.134	340.8007282
223.347	339.9327406
223.56	340.09352018
223.774	336.78809278
223.987	337.21563094
224.2	336.8172905
224.414	338.98052061
224.627	336.28869254
224.84	334.75739611
225.053	333.20559192
225.267	331.65855753
225.48	329.52065693
225.693	326.41157322
225.906	322.99599755
226.119	322.66261853
226.333	317.99482712
226.546	316.87198787
226.759	318.45409187
226.972	314.44834799
227.185	313.34912478
227.398	310.32860757
227.612	310.04451351
227.825	307.69945555
228.038	306.59559513
228.251	305.22033634
228.464	302.27960021
228.677	300.69938058
228.89	298.47838165
229.103	297.96624239
229.316	296.969507
229.529	296.471163
229.743	295.47875
229.956	293.75093344
230.169	290.09457136
230.382	288.37439507
230.595	289.30283171
230.808	291.40165918
231.021	290.62422744
231.234	285.12512148
231.447	285.66458151
231.66	284.91083511
231.872	284.65878885
232.085	284.2313616
232.298	283.76624934
232.511	282.87508973
232.724	284.82353224
232.937	284.29723225
233.15	285.92604283
233.363	285.92229467
233.576	285.76715853
233.789	287.41078412
234.002	286.53369914
234.214	285.8998257
234.427	285.9681165
234.64	287.68547799
234.853	287.63111675
235.066	283.96811231
235.279	281.9909578
235.491	281.52695892
235.704	285.49814342
235.917	285.96183612
236.13	284.67640969
236.342	284.57513655
236.555	284.43068231
236.768	283.59359962
236.981	283.82960827
237.193	280.24631359
237.406	280.66471373
237.619	278.48653119
237.832	279.47906293
238.044	279.35081237
238.257	278.8225143
238.47	279.56844955
238.682	278.24920837
238.895	278.24839411
239.108	278.16066102
239.32	279.634505
239.533	281.56542726
239.746	279.78741132
239.958	281.81741681
240.171	279.15399601
240.383	278.65183184
240.596	280.11401504
240.808	281.32795392
241.021	279.45682451
241.234	280.29760493
241.446	281.07049297
241.659	282.21517472
241.871	280.37862285
242.084	280.43288099
242.296	277.17866952
242.509	277.58897418
242.721	276.70375682
242.934	275.79084696
243.146	276.07643872
243.359	276.68766563
243.571	277.78748893
243.784	278.3449802
243.996	277.36782355
244.208	279.98109773
244.421	280.54971006
244.633	277.34667901
244.846	276.41180276
245.058	275.5415287
245.27	273.53068773
245.483	273.34867848
245.695	274.30632502
245.907	274.04735607
246.12	272.61663985
246.332	272.43968997
246.544	272.35354928
246.757	273.20000924
246.969	275.16012155
247.181	274.80216333
247.394	276.26363551
247.606	277.54463442
247.818	276.98317308
248.03	274.02031761
248.243	272.20610085
248.455	272.33410943
248.667	270.96987254
248.879	269.03618058
249.092	271.21159299
249.304	270.881684
249.516	270.09234401
249.728	270.09935615
249.94	270.56013141
250.153	268.55251726
250.365	268.42953849
250.577	268.77283939
250.789	269.96756234
251.001	269.63761804
251.213	269.92291152
251.425	268.2353343
251.637	265.73865429
251.85	265.02468028
252.062	263.14412328
252.274	262.58125557
252.486	262.2152039
252.698	261.03871764
252.91	260.19410006
253.122	260.51560231
253.334	260.26986012
253.546	259.6179111
253.758	260.52718323
253.97	259.60167119
254.182	260.45137671
254.394	260.01732608
254.606	260.47208322
254.818	258.16377658
255.03	258.68185783
255.242	258.41376462
255.454	257.37007362
255.666	255.02451507
255.877	253.98168701
256.089	255.79510507
256.301	253.79391448
256.513	253.78457829
256.725	253.44424801
256.937	255.76228324
257.149	253.98087155
257.361	255.21511972
257.572	254.63611803
257.784	254.69645265
257.996	255.28665513
258.208	254.41689064
258.42	254.8615793
258.631	252.64348878
258.843	253.41939913
259.055	252.17881837
259.267	253.19186359
259.479	255.08271523
259.69	254.30744646
259.902	254.47010249
260.114	255.81009435
260.325	256.26203634
260.537	255.79036792
260.749	255.18029298
260.961	255.33540399
261.172	254.16580246
261.384	251.99241959
261.596	254.72903252
261.807	253.01072847
262.019	253.50513146
262.23	253.35327263
262.442	253.97162976
262.654	252.57689195
262.865	252.91407951
263.077	254.08140524
263.288	251.88295012
263.5	251.95147891
263.712	251.50481942
263.923	250.53822277
264.135	249.26932964
264.346	249.57914449
264.558	251.2274004
264.769	248.85508828
264.981	247.95150178
265.192	249.89363778
265.404	249.65661479
265.615	249.93120955
265.827	250.19338413
266.038	248.63358956
266.25	249.73421734
266.461	248.1281214
266.673	246.50917588
266.884	246.03537173
267.095	245.95244381
267.307	245.8611898
267.518	246.64935801
267.73	247.6357882
267.941	247.26137092
268.152	246.91166516
268.364	245.14473586
268.575	246.12528525
268.786	246.74777682
268.998	245.89392245
269.209	248.75767622
269.42	249.28931812
269.632	248.06334081
269.843	248.82860781
270.054	250.250789
270.265	251.14246555
270.477	253.24957651
270.688	254.12434392
270.899	255.88997315
271.11	256.61397198
271.322	256.93556925
271.533	258.42976931
271.744	258.91856591
271.955	258.79547429
272.166	258.29546308
272.378	260.06244812
272.589	260.79760284
272.8	261.75675676
273.011	263.79105098
273.222	261.89848077
273.433	262.26279685
273.644	260.92440869
273.856	261.04897051
274.067	262.0158989
274.278	262.09325946
274.489	263.1025603
274.7	262.71144279
274.911	262.17863842
275.122	261.56255708
275.333	262.44472463
275.544	264.46189164
275.755	265.05497941
275.966	266.85063975
276.177	267.10045072
276.388	268.39948949
276.599	270.45885723
276.81	271.3494133
277.021	273.53210666
277.232	274.76703115
277.443	274.29828511
277.654	276.48807277
277.865	277.9960838
278.076	281.45176787
278.287	283.21862348
278.497	284.39710145
278.708	285.89203155
278.919	287.43615238
279.13	288.76614481
279.341	290.88083208
279.552	291.34634397
279.763	293.24914281
279.973	294.52793564
280.184	296.23866281
280.395	295.67633911
280.606	297.88908945
280.817	299.55447345
281.027	300.80164586
281.238	302.98496823
281.449	303.13365087
281.66	306.52847932
281.87	308.73887424
282.081	311.83598455
282.292	314.93017924
282.503	315.35928019
282.713	320.02584794
282.924	326.23369681
283.135	327.95439949
283.345	331.22171458
283.556	334.6016066
283.767	335.81081081
283.977	340.79120734
284.188	343.81638343
284.399	345.95251843
284.609	351.37791721
284.82	356.9840652
285.03	359.7148587
285.241	362.79741199
285.451	362.09167666
285.662	364.29978676
285.873	365.76225889
286.083	365.05350195
286.294	367.69746995
286.504	368.41248653
286.715	367.92937588
286.925	367.75179098
287.136	365.26096471
287.346	361.65280665
287.557	362.68077315
287.767	360.39561707
287.978	359.60528135
288.188	361.30933086
288.399	358.15832913
288.609	356.29805724
288.819	355.52607606
289.03	350.63372355
289.24	348.81198115
289.451	344.79832268
289.661	340.1152114
289.871	341.56270591
290.082	337.80113933
290.292	336.99168507
290.502	334.53071306
290.713	329.39977182
290.923	326.27195004
291.133	320.51368879
291.344	317.06947103
291.554	314.31119262
291.764	310.37797749
291.974	304.87907158
292.185	300.13715711
292.395	296.94512056
292.605	288.3640553
292.815	283.26479965
293.026	278.75272001
293.236	273.08502489
293.446	267.93561443
293.656	260.30926987
293.866	254.19113165
294.077	247.97546492
294.287	239.67977172
294.497	231.95688976
294.707	223.72849244
294.917	215.86792809
295.127	208.83997706
295.337	201.09016537
295.548	193.91825068
295.758	186.21069255
295.968	178.94112061
296.178	171.66065553
296.388	164.3198896
296.598	157.10726424
296.808	150.749858
297.018	144.67028043
297.228	138.61125084
297.438	132.32408957
297.648	126.5196622
297.858	121.0240258
298.068	116.00547622
298.278	111.04326357
298.488	106.57995916
298.698	102.46405394
298.908	98.37117501
299.118	94.5668827
299.328	90.83095691
299.538	87.26347058
299.748	84.08433247
299.957	80.96172469
300.167	78.18582974
300.377	75.28327891
300.587	72.56690998
300.797	70.08782009
301.007	67.93386041
301.217	65.63170282
301.426	63.60161126
301.636	61.57932926
301.846	59.61910797
302.056	57.83986694
302.266	56.09823302
302.475	54.36739487
302.685	52.90711619
302.895	51.32974107
303.105	49.89047971
303.314	48.5682384
303.524	47.09015063
303.734	45.86815175
303.944	44.65242573
304.153	43.38213834
304.363	42.30156262
304.573	41.17902453
304.782	40.11806441
304.992	39.24205039
305.202	38.38048779
305.411	37.4709446
305.621	36.59155248
305.831	35.79807554
306.04	34.9954488
306.25	34.28844768
306.459	33.55805835
306.669	32.87517094
306.878	32.22031833
307.088	31.60757202
307.298	30.99542756
307.507	30.42178962
307.717	29.88430963
307.926	29.34753798
308.136	28.85018441
308.345	28.41705911
308.555	28.00606915
308.764	27.60635215
308.974	27.21264335
309.183	26.84997833
309.392	26.40204875
309.602	26.02499767
309.811	25.6673888
310.021	25.32303288
310.23	24.97114446
310.44	24.63944383
310.649	24.3361438
310.858	24.03107482
311.068	23.76021963
311.277	23.54929776
311.486	23.28332612
311.696	23.0393013
311.905	22.79922007
312.114	22.58062453
312.324	22.42351581
312.533	22.19544737
312.742	21.99873948
312.952	21.7791384
313.161	21.56656597
313.37	21.37970536
313.579	21.22410443
313.789	21.04421285
313.998	20.86434433
314.207	20.67945511
314.416	20.54694929
314.625	20.39905479
314.835	20.26392243
315.044	20.11111485
315.253	19.99434072
315.462	19.85108786
315.671	19.707422
315.88	19.57133452
316.09	19.43115628
316.299	19.31177867
316.508	19.17949473
316.717	19.05787535
316.926	18.94461714
317.135	18.81001168
317.344	18.71938234
317.553	18.64892505
317.762	18.53707065
317.971	18.48230278
318.18	18.46423074
318.389	18.41181589
318.598	18.38169557
318.807	18.31329036
319.016	18.21786559
319.225	18.12634181
319.434	18.03905647
319.643	17.90579643
319.852	17.75365103
320.061	17.6085771
320.27	17.45511803
320.479	17.29729772
320.688	17.12016226
320.897	16.95842282
321.105	16.79757698
321.314	16.65399719
321.523	16.54234208
321.732	16.44786641
321.941	16.34067693
322.15	16.24454559
322.359	16.14630658
322.567	16.01437656
322.776	15.9106584
322.985	15.81772205
323.194	15.73878417
323.403	15.67372275
323.611	15.60016796
323.82	15.53330363
324.029	15.49041861
324.237	15.4689752
324.446	15.43993801
324.655	15.43906267
324.864	15.43995284
325.072	15.43327363
325.281	15.42998482
325.49	15.43625375
325.698	15.45286142
325.907	15.4366618
326.116	15.41342751
326.324	15.39487533
326.533	15.40528183
326.741	15.37651878
326.95	15.37096744
327.159	15.36890116
327.367	15.34795699
327.576	15.32637938
327.784	15.30052129
327.993	15.29732445
328.201	15.28488519
328.41	15.27951351
328.618	15.27637417
328.827	15.26500207
329.035	15.23838697
329.244	15.23162072
329.452	15.2377119
329.661	15.23090159
329.869	15.21818933
330.078	15.19982897
330.286	15.22181962
330.495	15.22905093
330.703	15.22737724
330.911	15.21299475
331.12	15.2039294
331.328	15.19570613
331.537	15.18227464
331.745	15.17097722
331.953	15.16448404
332.162	15.17078808
332.37	15.16660692
332.578	15.17238475
332.787	15.17409768
332.995	15.1710693
333.203	15.15251681
333.411	15.13972601
333.62	15.12070023
333.828	15.10251207
334.036	15.10998544
334.244	15.11489859
334.453	15.12385817
334.661	15.08482293
334.869	15.07394897
335.077	15.05842086
335.285	15.05336603
335.494	15.03629057
335.702	15.02381837
335.91	15.01600338
336.118	15.00608561
336.326	15.00507792
336.534	15.00361162
336.742	14.99643279
336.951	15.0031056
337.159	14.97761616
337.367	14.96155229
337.575	14.96918978
337.783	14.98170671
337.991	14.98606234
338.199	14.97139932
338.407	14.95525328
338.615	14.92463927
338.823	14.90952036
339.031	14.91839788
339.239	14.90453394
339.447	14.89601377
339.655	14.8904052
339.863	14.89777118
340.071	14.8929234
340.279	14.88129933
340.487	14.87449089
340.695	14.86415346
340.903	14.85020605
341.11	14.8430479
341.318	14.80891664
341.526	14.80600731
341.734	14.79988372
341.942	14.78919624
342.15	14.75582752
342.358	14.74786594
342.565	14.73996224
342.773	14.73314484
342.981	14.73386352
343.189	14.72344598
343.397	14.70406258
343.604	14.68546419
343.812	14.67465527
344.02	14.64474723
344.228	14.62827973
344.435	14.62798998
344.643	14.629798
344.851	14.61209552
345.058	14.6087541
345.266	14.59701736
345.474	14.58208738
345.681	14.57261189
345.889	14.56070589
346.097	14.54641502
346.304	14.5359266
346.512	14.53450023
346.72	14.52545796
346.927	14.52940491
347.135	14.52077359
347.342	14.50793646
347.55	14.50609074
347.758	14.48716798
347.965	14.48917793
348.173	14.4875822
348.38	14.49035184
348.588	14.48551332
348.795	14.47484986
349.003	14.46240724
349.21	14.46358931
349.418	14.45027829
349.625	14.44575585
349.833	14.45648566
350.04	14.46174602
350.247	14.46485059
350.455	14.46386385
350.662	14.47267881
350.87	14.48109378
351.077	14.4797303
351.284	14.47164658
351.492	14.46410855
351.699	14.47617406
351.906	14.47310919
352.114	14.48785315
352.321	14.49765586
352.528	14.50099461
352.736	14.51837065
352.943	14.51854727
353.15	14.52274051
353.358	14.52064123
353.565	14.52810341
353.772	14.52412478
353.979	14.52370595
354.187	14.50620427
354.394	14.50522049
354.601	14.50579236
354.808	14.49809108
355.015	14.48182647
355.223	14.4675677
355.43	14.45439364
355.637	14.43761414
355.844	14.43311328
356.051	14.40164565
356.258	14.38665814
356.465	14.36254332
356.673	14.34920751
356.88	14.31694931
357.087	14.28288727
357.294	14.25607252
357.501	14.23363497
357.708	14.21754323
357.915	14.18359344
358.122	14.15944194
358.329	14.12736728
358.536	14.10271918
358.743	14.07639575
358.95	14.05323851
359.157	14.03192801
359.364	14.00670469
359.571	13.98536066
359.778	13.96161958
359.985	13.95251266
360.192	13.92360243
360.399	13.9146231
360.606	13.89067525
360.812	13.86669231
361.019	13.83591142
361.226	13.8165087
361.433	13.80294261
361.64	13.79349027
361.847	13.78142771
362.054	13.76236251
362.26	13.75204258
362.467	13.73926511
362.674	13.73138576
362.881	13.71751559
363.088	13.69595151
363.294	13.68425987
363.501	13.67862643
363.708	13.67652344
363.915	13.67249831
364.121	13.68148226
364.328	13.67368214
364.535	13.68896825
364.741	13.68804633
364.948	13.68982301
365.155	13.7077078
365.361	13.71097393
365.568	13.72517361
365.775	13.72413567
365.981	13.72805996
366.188	13.73091118
366.395	13.74112466
366.601	13.75165822
366.808	13.77737762
367.014	13.78699923
367.221	13.79844778
367.427	13.81387077
367.634	13.82000001
367.84	13.81357205
368.047	13.81613136
368.254	13.81156221
368.46	13.80662028
368.667	13.81150295
368.873	13.81037475
369.079	13.80052162
369.286	13.7955155
369.492	13.79478765
369.699	13.80231152
369.905	13.79293783
370.112	13.79598623
370.318	13.80309723
370.524	13.80307771
370.731	13.79684041
370.937	13.7950597
371.144	13.77802381
371.35	13.77011228
371.556	13.76776686
371.763	13.75927984
371.969	13.74705866
372.175	13.74657283
372.381	13.7417569
372.588	13.75291337
372.794	13.74800417
373	13.7390553
373.206	13.72217892
373.413	13.72798345
373.619	13.72846994
373.825	13.73540027
374.031	13.7373461
374.238	13.7439857
374.444	13.74783781
374.65	13.74552283
374.856	13.74580485
375.062	13.75850857
375.268	13.77561257
375.475	13.77993071
375.681	13.79697196
375.887	13.8106245
376.093	13.83234067
376.299	13.84718149
376.505	13.87813519
376.711	13.90129565
376.917	13.90987137
377.123	13.92532165
377.329	13.95738039
377.535	13.98191444
377.741	14.00753515
377.947	14.02661256
378.153	14.03722439
378.359	14.04497239
378.565	14.05748178
378.771	14.07359853
378.977	14.09127679
379.183	14.1070499
379.389	14.10738176
379.595	14.10819332
379.801	14.11671428
380.007	14.12245379
380.213	14.11326281
380.418	14.1086472
380.624	14.11872326
380.83	14.11322832
381.036	14.10092237
381.242	14.09166218
381.448	14.09833309
381.653	14.08041509
381.859	14.07402892
382.065	14.06203421
382.271	14.05354776
382.476	14.03982301
382.682	14.02177074
382.888	14.02835043
383.094	14.01828133
383.299	14.01331858
383.505	14.00175016
383.711	13.9890285
383.916	13.98364999
384.122	13.98274331
384.328	13.97697299
384.533	13.98818438
384.739	13.98825088
384.945	13.98523209
385.15	13.98926513
385.356	14.0043068
385.562	14.02547766
385.767	14.01980185
385.973	14.03422474
386.178	14.04578312
386.384	14.04238262
386.589	14.05660485
386.795	14.07275126
387	14.08391359
387.206	14.09490362
387.411	14.10110688
387.617	14.11520448
387.822	14.13591961
388.028	14.16019689
388.233	14.16999075
388.439	14.17801844
388.644	14.18879576
388.85	14.20223963
389.055	14.20866501
389.26	14.19691216
389.466	14.19836551
389.671	14.18102081
389.877	14.18111432
390.082	14.18207221
390.287	14.17769824
390.493	14.17703207
390.698	14.17978702
390.903	14.17439971
391.109	14.16220978
391.314	14.16152412
391.519	14.14752799
391.724	14.13765269
391.93	14.11139248
392.135	14.09004905
392.34	14.07209921
392.545	14.05014918
392.751	14.02835218
392.956	14.00909976
393.161	13.98891266
393.366	13.971893
393.571	13.96522287
393.776	13.94996014
393.982	13.94533201
394.187	13.93054437
394.392	13.9124965
394.597	13.89252921
394.802	13.87734059
395.007	13.86470556
395.212	13.84809794
395.417	13.84086766
395.622	13.82777147
395.827	13.81088542
396.032	13.80697223
396.237	13.80243568
396.442	13.79622599
396.647	13.79227316
396.852	13.79130793
397.057	13.80050034
397.262	13.80373202
397.467	13.79599257
397.672	13.80145507
397.877	13.80233991
398.082	13.80677774
398.287	13.8024494
398.492	13.80003535
398.697	13.80770992
398.902	13.81885791
399.107	13.82139308
399.311	13.82642581
399.516	13.82871617
399.721	13.84161527
399.926	13.84998017
400.131	13.86515491
400.336	13.87234084
400.54	13.88297264
400.745	13.89430393
400.95	13.90364847
401.155	13.91035992
401.359	13.91392709
401.564	13.90470629
401.769	13.92049526
401.974	13.93717752
402.178	13.95935867
402.383	13.96834881
402.588	13.98093814
402.792	13.992576
402.997	13.99703084
403.202	14.00613456
403.406	14.00869598
403.611	14.02223251
403.815	14.04402559
404.02	14.04705798
404.225	14.05246705
404.429	14.05787514
404.634	14.0628941
404.838	14.06683107
405.043	14.07619813
405.247	14.0818356
405.452	14.08474446
405.656	14.0958079
405.861	14.12190373
406.065	14.13356126
406.27	14.13098474
406.474	14.13835968
406.679	14.13951279
406.883	14.15117052
407.088	14.15834113
407.292	14.16971072
407.497	14.1724293
407.701	14.18836544
407.905	14.19180895
408.11	14.19238811
408.314	14.19283184
408.518	14.19730109
408.723	14.20196883
408.927	14.20988806
409.131	14.22411031
409.336	14.23076936
409.54	14.24591578
409.744	14.25831144
409.949	14.25663439
410.153	14.25615968
410.357	14.25124523
410.561	14.25901523
410.766	14.26137033
410.97	14.27174219
411.174	14.27393465
411.378	14.27548047
411.582	14.29204842
411.787	14.29601109
411.991	14.30280758
412.195	14.3073671
412.399	14.31499808
412.603	14.32893891
412.807	14.34050827
413.011	14.34975967
413.215	14.36436234
413.419	14.36965529
413.624	14.38482634
413.828	14.38548079
414.032	14.40026076
414.236	14.41601042
414.44	14.43391017
414.644	14.45192383
414.848	14.46238059
415.052	14.47660044
415.256	14.49854564
415.46	14.51968513
415.664	14.53564345
415.868	14.53322953
416.072	14.55690405
416.275	14.57074513
416.479	14.58922075
416.683	14.59460324
416.887	14.60760405
417.091	14.62472272
417.295	14.63950107
417.499	14.64513778
417.703	14.65932709
417.906	14.66319878
418.11	14.68171553
418.314	14.68994655
418.518	14.70549457
418.722	14.72648995
418.925	14.73630928
419.129	14.74931518
419.333	14.76228822
419.537	14.75976466
419.74	14.77154043
419.944	14.78222769
420.148	14.79104523
420.352	14.79536686
420.555	14.80847363
420.759	14.82018256
420.963	14.84631278
421.166	14.85211223
421.37	14.86047101
421.573	14.87359325
421.777	14.88872794
421.981	14.89842855
422.184	14.91037252
422.388	14.92486192
422.591	14.94146179
422.795	14.95686586
422.999	14.956461
423.202	14.97849725
423.406	15.00462557
423.609	15.01253358
423.813	15.03028702
424.016	15.02889697
424.22	15.0503604
424.423	15.06982221
424.627	15.08170567
424.83	15.08248287
425.033	15.08714867
425.237	15.0874153
425.44	15.0953607
425.644	15.10533152
425.847	15.11456402
426.05	15.13234701
426.254	15.13252151
426.457	15.13635323
426.66	15.14072118
426.864	15.15232437
427.067	15.15057378
427.27	15.15683585
427.474	15.14865052
427.677	15.13308672
427.88	15.13533099
428.084	15.13093081
428.287	15.13702932
428.49	15.13054688
428.693	15.13410643
428.896	15.1395649
429.1	15.15025637
429.303	15.16260073
429.506	15.17125989
429.709	15.18098543
429.912	15.1849085
430.116	15.17990238
430.319	15.16638679
430.522	15.17288464
430.725	15.17870794
430.928	15.18338699
431.131	15.17952611
431.334	15.17582293
431.537	15.17744167
431.74	15.18374405
431.943	15.18922458
432.146	15.1959514
432.349	15.20678038
432.552	15.21166061
432.755	15.22424265
432.958	15.22994231
433.161	15.23411415
433.364	15.23733691
433.567	15.24095737
433.77	15.243748
433.973	15.24515613
434.176	15.25469105
434.379	15.27094432
434.582	15.28238618
434.785	15.28889205
434.988	15.29381241
435.19	15.29873873
435.393	15.29380745
435.596	15.30365771
435.799	15.31569814
436.002	15.31711677
436.205	15.32749657
436.407	15.32605553
436.61	15.32892225
436.813	15.3368605
437.016	15.34125637
437.218	15.34534322
437.421	15.35137353
437.624	15.35707413
437.827	15.36707268
438.029	15.37469536
438.232	15.38445204
438.435	15.38768822
438.637	15.39227604
438.84	15.39429168
439.043	15.40213627
439.245	15.40598645
439.448	15.41064327
439.65	15.42563671
439.853	15.43309321
440.056	15.42873034
440.258	15.43346752
440.461	15.43561891
440.663	15.44552049
440.866	15.45289253
441.068	15.46011274
441.271	15.45851271
441.473	15.4654209
441.676	15.4676393
441.878	15.47875483
442.081	15.48366181
442.283	15.49515539
442.486	15.5070235
442.688	15.51022994
442.89	15.51187423
443.093	15.52255192
443.295	15.51852431
443.498	15.53157591
443.7	15.53954602
443.902	15.54463052
444.105	15.54553212
444.307	15.55774343
444.509	15.56769364
444.712	15.58009093
444.914	15.59599539
445.116	15.6134062
445.319	15.62053965
445.521	15.62906468
445.723	15.63739151
445.925	15.64996368
446.128	15.65154566
446.33	15.64838282
446.532	15.64645472
446.734	15.64270033
446.936	15.6529206
447.139	15.66373435
447.341	15.66570173
447.543	15.68808534
447.745	15.69245912
447.947	15.69698825
448.149	15.70865497
448.351	15.71995712
448.553	15.72861775
448.755	15.7385972
448.958	15.73830222
449.16	15.72944059
449.362	15.72476967
449.564	15.7285437
449.766	15.73143508
449.968	15.73565327
450.17	15.73285821
450.372	15.72935874
450.574	15.74024226
450.776	15.74290137
450.978	15.75097732
451.179	15.74769529
451.381	15.75162423
451.583	15.76300125
451.785	15.75043707
451.987	15.74985106
452.189	15.74907042
452.391	15.75047963
452.593	15.75516772
452.795	15.75832248
452.996	15.76531058
453.198	15.77485801
453.4	15.77785932
453.602	15.78236994
453.804	15.78848399
454.005	15.7930797
454.207	15.79469796
454.409	15.79010785
454.611	15.7969517
454.812	15.80233101
455.014	15.81350544
455.216	15.81833521
455.417	15.82944757
455.619	15.82608878
455.821	15.82062085
456.022	15.83046843
456.224	15.83715967
456.426	15.84282469
456.627	15.85089214
456.829	15.85360187
457.031	15.85592209
457.232	15.85204476
457.434	15.85298173
457.635	15.8599607
457.837	15.8577384
458.038	15.857945
458.24	15.85998477
458.441	15.86851492
458.643	15.87934184
458.844	15.89074456
459.046	15.88956327
459.247	15.89569442
459.449	15.89448621
459.65	15.89194964
459.852	15.90574527
460.053	15.92042304
460.254	15.92702426
460.456	15.93910392
460.657	15.94461381
460.859	15.94816167
461.06	15.95238228
461.261	15.96278833
461.463	15.97264889
461.664	15.97940582
461.865	15.98706881
462.066	15.9915442
462.268	15.9977781
462.469	16.00767028
462.67	16.00729263
462.872	16.01887913
463.073	16.01744323
463.274	16.03074229
463.475	16.03167443
463.676	16.04084895
463.878	16.04588221
464.079	16.04133723
464.28	16.04016735
464.481	16.03443857
464.682	16.0299788
464.883	16.0338538
465.085	16.02934858
465.286	16.0291261
465.487	16.02732011
465.688	16.02907961
465.889	16.02687294
466.09	16.03140653
466.291	16.03727746
466.492	16.04536643
466.693	16.04254109
466.894	16.04545329
467.095	16.04590025
467.296	16.04903341
467.497	16.04693625
467.698	16.04144801
467.899	16.03862441
468.1	16.03845148
468.301	16.04093105
468.502	16.0397284
468.703	16.0508572
468.903	16.04961457
469.104	16.0530363
469.305	16.06410188
469.506	16.06414861
469.707	16.06294482
469.908	16.06218592
470.109	16.06731577
470.309	16.06834658
470.51	16.07602033
470.711	16.07893086
470.912	16.08543016
471.112	16.09288621
471.313	16.09777602
471.514	16.10042536
471.715	16.10052678
471.915	16.107747
472.116	16.11565423
472.317	16.12454778
472.517	16.12568777
472.718	16.13259439
472.919	16.13252451
473.119	16.14248472
473.32	16.14202183
473.521	16.14220331
473.721	16.15765776
473.922	16.16354816
474.122	16.1742167
474.323	16.18091075
474.523	16.18671071
474.724	16.18923102
474.925	16.18711286
475.125	16.19804108
475.326	16.19869746
475.526	16.19859904
475.727	16.19951581
475.927	16.21015997
476.127	16.2211625
476.328	16.22730904
476.528	16.23526178
476.729	16.2497308
476.929	16.25696755
477.13	16.26506985
477.33	16.26587014
477.53	16.27484241
477.731	16.28046736
477.931	16.27912176
478.131	16.29240584
478.332	16.29737192
478.532	16.30582192
478.732	16.3045664
478.933	16.30823184
479.133	16.31662476
479.333	16.31509536
479.533	16.32042534
479.734	16.32856531
479.934	16.34129742
480.134	16.34424617
480.334	16.34007779
480.534	16.34648613
480.735	16.35124609
480.935	16.35417974
481.135	16.35754711
481.335	16.36205287
481.535	16.37100196
481.735	16.37288746
481.935	16.37964671
482.136	16.39043025
482.336	16.3902407
482.536	16.39893934
482.736	16.40762417
482.936	16.41423085
483.136	16.41831457
483.336	16.42388166
483.536	16.43001955
483.736	16.43913584
483.936	16.45154128
484.136	16.45338992
484.336	16.45891295
484.536	16.47291476
484.736	16.47497071
484.936	16.47783302
485.135	16.48106501
485.335	16.48657254
485.535	16.49364935
485.735	16.49801318
485.935	16.50696134
486.135	16.50779146
486.335	16.51116366
486.534	16.51277253
486.734	16.51305543
486.934	16.51420953
487.134	16.52025976
487.334	16.52962946
487.533	16.53390597
487.733	16.53980602
487.933	16.54642518
488.133	16.54297127
488.332	16.55108753
488.532	16.55102019
488.732	16.55619554
488.931	16.56791836
489.131	16.57013718
489.331	16.57805448
489.53	16.58715763
489.73	16.59275733
489.93	16.60313481
490.129	16.61316149
490.329	16.61771541
490.528	16.62676729
490.728	16.63851849
490.928	16.64684818
491.127	16.6503514
491.327	16.66030499
491.526	16.66727407
491.726	16.67377677
491.925	16.67786846
492.125	16.67800152
492.324	16.6905158
492.524	16.69520861
492.723	16.70636153
492.922	16.71303956
493.122	16.72065513
493.321	16.73103205
493.521	16.73461388
493.72	16.7389335
493.919	16.7463759
494.119	16.74980813
494.318	16.75536981
494.517	16.76611996
494.717	16.76917456
494.916	16.76793316
495.115	16.77348074
495.315	16.78875406
495.514	16.79418457
495.713	16.7962946
495.912	16.80144038
496.112	16.81350019
496.311	16.82412794
496.51	16.83038218
496.709	16.8450381
496.908	16.84814315
497.108	16.85403653
497.307	16.85626168
497.506	16.86361786
497.705	16.87072175
497.904	16.87475617
498.103	16.88271299
498.302	16.89078826
498.501	16.89351653
498.701	16.89769501
498.9	16.90721707
499.099	16.92065607
499.298	16.92419779
499.497	16.92269209
499.696	16.92938068
499.895	16.94291124
500.094	16.94968523
500.293	16.95246657
500.492	16.9625238
500.691	16.97358515
500.89	16.97733934
501.088	16.99305315
501.287	16.999744
501.486	17.00652284
501.685	17.01606135
501.884	17.02845786
502.083	17.03839328
502.282	17.04147569
502.481	17.04918436
502.679	17.06131908
502.878	17.07511504
503.077	17.08325753
503.276	17.09066506
503.475	17.1049718
503.673	17.11789716
503.872	17.12780882
504.071	17.13077877
504.27	17.14323787
504.468	17.15317724
504.667	17.16274293
504.866	17.16666578
505.064	17.16954298
505.263	17.17318869
505.462	17.18442814
505.66	17.19279606
505.859	17.20077913
506.058	17.2075273
506.256	17.22380436
506.455	17.23434157
506.653	17.25142825
506.852	17.25679949
507.05	17.26821683
507.249	17.28180458
507.448	17.28780684
507.646	17.29535931
507.845	17.30292831
508.043	17.31804913
508.242	17.3293852
508.44	17.33809297
508.638	17.34481159
508.837	17.35134068
509.035	17.36548388
509.234	17.38118626
509.432	17.39461976
509.631	17.39959323
509.829	17.40770865
510.027	17.41656126
510.226	17.42704552
510.424	17.43522463
510.622	17.46134634
510.821	17.4638919
511.019	17.47891433
511.217	17.49142002
511.415	17.49769585
511.614	17.51663435
511.812	17.52841333
512.01	17.53866152
512.208	17.54762639
512.407	17.56837739
512.605	17.58354273
512.803	17.60334559
513.001	17.61606096
513.199	17.62831048
513.398	17.63800261
513.596	17.65211251
513.794	17.673446
513.992	17.69387338
514.19	17.70901602
514.388	17.71893434
514.586	17.73187673
514.784	17.73806037
514.982	17.755606
515.18	17.77326832
515.378	17.78396739
515.576	17.80078526
515.774	17.81255663
515.972	17.82947654
516.17	17.84788333
516.368	17.85843015
516.566	17.87007437
516.764	17.88669913
516.962	17.89957767
517.16	17.92347202
517.358	17.93968673
517.556	17.95727476
517.754	17.96971737
517.952	17.9875835
518.149	18.00511517
518.347	18.02494685
518.545	18.04923438
518.743	18.0650914
518.941	18.08337817
519.138	18.10174143
519.336	18.11789729
519.534	18.13706823
519.732	18.15340853
519.929	18.17537606
520.127	18.19408729
520.325	18.21273128
520.523	18.23489665
520.72	18.25413232
520.918	18.27538938
521.116	18.29671012
521.313	18.30400999
521.511	18.31973066
521.709	18.33988139
521.906	18.36841021
522.104	18.38019152
522.301	18.39534917
522.499	18.417406
522.696	18.43673918
522.894	18.45237556
523.092	18.46625109
523.289	18.48317718
523.487	18.5031625
523.684	18.51904839
523.882	18.54011688
524.079	18.55459251
524.276	18.5749179
524.474	18.5881065
524.671	18.60760449
524.869	18.62359373
525.066	18.64564204
525.264	18.6618949
525.461	18.68711065
525.658	18.70927594
525.856	18.73076994
526.053	18.74243648
526.25	18.75831211
526.448	18.77948574
526.645	18.78537655
526.842	18.80547871
527.039	18.81617207
527.237	18.83372304
527.434	18.85293136
527.631	18.87188796
527.828	18.89279937
528.026	18.9100768
528.223	18.93613787
528.42	18.95510172
528.617	18.9752228
528.814	18.99269462
529.012	19.00847126
529.209	19.01724491
529.406	19.03800199
529.603	19.05525922
529.8	19.06946291
529.997	19.08027569
530.194	19.09703885
530.391	19.11784603
530.588	19.13742939
530.785	19.16133904
530.982	19.16929665
531.179	19.19777131
531.376	19.21321943
531.573	19.22997988
531.77	19.24374471
531.967	19.25740389
532.164	19.27068872
532.361	19.28181879
532.558	19.29993627
532.755	19.31940573
532.952	19.33753159
533.149	19.35031539
533.346	19.36901504
533.543	19.38741014
533.739	19.409538
533.936	19.43240705
534.133	19.45792745
534.33	19.47352273
534.527	19.49581134
534.723	19.50774704
534.92	19.5248465
535.117	19.54509021
535.314	19.56143577
535.51	19.5792927
535.707	19.60043924
535.904	19.61730692
536.1	19.63552258
536.297	19.65619605
536.494	19.6664724
536.69	19.68126542
536.887	19.69627868
537.084	19.70766735
537.28	19.73824505
537.477	19.75260741
537.674	19.76813706
537.87	19.78156459
538.067	19.79257863
538.263	19.80467247
538.46	19.82307154
538.656	19.83466712
538.853	19.85028079
539.049	19.86699832
539.246	19.88097144
539.442	19.89338645
539.639	19.9096178
539.835	19.91608047
540.032	19.92466668
540.228	19.9408201
540.424	19.95837027
540.621	19.98294895
540.817	20.00268467
541.014	20.02310218
541.21	20.03895282
541.406	20.05005259
541.603	20.06891272
541.799	20.08677603
541.995	20.09656321
542.191	20.11401085
542.388	20.13389412
542.584	20.15440205
542.78	20.16671791
542.976	20.18633965
543.173	20.19899287
543.369	20.21790643
543.565	20.2404264
543.761	20.25400648
543.957	20.26919438
544.154	20.29007127
544.35	20.29791687
544.546	20.31454299
544.742	20.3273789
544.938	20.33761141
545.134	20.3445825
545.33	20.35593726
545.526	20.364149
545.722	20.37373269
545.919	20.37763104
546.115	20.38857665
546.311	20.39958537
546.507	20.40420273
546.703	20.41197179
546.899	20.42804087
547.095	20.43920564
547.29	20.44667959
547.486	20.4610342
547.682	20.46263872
547.878	20.47807239
548.074	20.48886706
548.27	20.49976488
548.466	20.51652686
548.662	20.51756448
548.858	20.52491656
549.053	20.53186278
549.249	20.5404731
549.445	20.5591706
549.641	20.56938116
549.837	20.58859369
550.032	20.61125984
550.228	20.62801279
550.424	20.64097605
550.62	20.66349262
550.815	20.6753475
551.011	20.68413829
551.207	20.69566068
551.402	20.71701762
551.598	20.72429722
551.794	20.74191619
551.989	20.75998965
552.185	20.77308486
552.381	20.78313274
552.576	20.79356913
552.772	20.80657615
552.967	20.82254676
553.163	20.83352897
553.359	20.84751853
553.554	20.84556877
553.75	20.85772168
553.945	20.86323563
554.141	20.86470487
554.336	20.8759952
554.532	20.88638114
554.727	20.88262588
554.922	20.88989097
555.118	20.90000677
555.313	20.89931417
555.509	20.89710946
555.704	20.90792473
555.899	20.91034725
556.095	20.91420129
556.29	20.92347791
556.486	20.93308394
556.681	20.94509604
556.876	20.95472696
557.071	20.95814609
557.267	20.96296292
557.462	20.9645973
557.657	20.97772409
557.853	20.98512893
558.048	20.989639
558.243	21.00056862
558.438	21.00246412
558.633	21.00280439
558.829	21.02119631
559.024	21.02218799
559.219	21.02867781
559.414	21.04100471
559.609	21.05431797
559.804	21.06479654
559.999	21.07581953
560.194	21.08078346
560.39	21.08770115
560.585	21.08739604
560.78	21.091783
560.975	21.09446158
561.17	21.1042378
561.365	21.11307706
561.56	21.130062
561.755	21.14237654
561.95	21.15253968
562.145	21.15794523
562.34	21.15678491
562.535	21.16577622
562.729	21.17682568
562.924	21.1824647
563.119	21.19102132
563.314	21.20143177
563.509	21.20433626
563.704	21.20773938
563.899	21.20554774
564.093	21.20962284
564.288	21.20678822
564.483	21.2143899
564.678	21.22867008
564.873	21.23352858
565.067	21.24913475
565.262	21.2475879
565.457	21.25770907
565.652	21.25569725
565.846	21.25944856
566.041	21.2583526
566.236	21.25969467
566.43	21.27204215
566.625	21.27524752
566.82	21.27904433
567.014	21.26761295
567.209	21.27728644
567.404	21.27880618
567.598	21.29052733
567.793	21.29606756
567.987	21.31387695
568.182	21.3174518
568.376	21.31941988
568.571	21.31750123
568.765	21.31962111
568.96	21.32108111
569.154	21.31747162
569.349	21.316958
569.543	21.31796483
569.738	21.3220897
569.932	21.32903225
570.127	21.33354947
570.321	21.34180547
570.515	21.33668482
570.71	21.33607144
570.904	21.34294224
571.098	21.35426761
571.293	21.35708108
571.487	21.36045835
571.681	21.3530268
571.876	21.36073427
572.07	21.35075655
572.264	21.36236912
572.458	21.38165305
572.653	21.38061715
572.847	21.39339095
573.041	21.38810307
573.235	21.38869511
573.43	21.40013383
573.624	21.40395893
573.818	21.41147686
574.012	21.412441
574.206	21.4139737
574.4	21.42279722
574.594	21.42341517
574.788	21.43165248
574.983	21.43701722
575.177	21.44220999
575.371	21.44640545
575.565	21.44992606
575.759	21.45559095
575.953	21.45722539
576.147	21.46021347
576.341	21.45995169
576.535	21.46503514
576.729	21.47873133
576.923	21.4743111
577.117	21.49083065
577.31	21.49125186
577.504	21.50259778
577.698	21.50164105
577.892	21.50592693
578.086	21.51261888
578.28	21.5189468
578.474	21.50891422
578.668	21.52190506
578.861	21.5242382
579.055	21.52032875
579.249	21.52053061
579.443	21.51381143
579.636	21.52115034
579.83	21.52033555
580.024	21.52581533
580.218	21.53197775
580.411	21.53215903
580.605	21.52203591
580.799	21.52287089
580.992	21.53522719
581.186	21.53690253
581.38	21.54997948
581.573	21.54594538
581.767	21.54793558
581.961	21.5462519
582.154	21.54110481
582.348	21.54275772
582.541	21.55892066
582.735	21.56321308
582.928	21.56254683
583.122	21.56269309
583.315	21.57050488
583.509	21.57621877
583.702	21.57734283
583.896	21.59351495
584.089	21.59267327
584.283	21.60080138
584.476	21.60776248
584.67	21.61326245
584.863	21.62216462
585.056	21.61903825
585.25	21.62215951
585.443	21.61499673
585.636	21.62103585
585.83	21.63314515
586.023	21.63733846
586.216	21.64545105
586.41	21.65962597
586.603	21.65657755
586.796	21.65977979
586.989	21.66380932
587.183	21.66406595
587.376	21.66029717
587.569	21.66689321
587.762	21.67063074
587.955	21.67333238
588.149	21.68160067
588.342	21.6705256
588.535	21.66976549
588.728	21.68106286
588.921	21.68461604
589.114	21.67945574
589.307	21.68007397
589.5	21.69228529
589.693	21.68943421
589.886	21.69174633
590.08	21.70115188
590.273	21.69920933
590.466	21.69745336
590.659	21.70582205
590.852	21.70091364
591.044	21.70904472
591.237	21.71740344
591.43	21.72573289
591.623	21.73488471
591.816	21.73185976
592.009	21.73242331
592.202	21.73898013
592.395	21.74478444
592.588	21.7509189
592.781	21.75278114
592.973	21.76021727
593.166	21.77111771
593.359	21.78141514
593.552	21.79184185
593.745	21.79347888
593.937	21.78924573
594.13	21.78732981
594.323	21.79995593
594.515	21.79939092
594.708	21.78971252
594.901	21.79887174
595.094	21.79600526
595.286	21.81109603
595.479	21.81210315
595.672	21.80953321
595.864	21.82179418
596.057	21.8245927
596.249	21.82321593
596.442	21.83435537
596.635	21.83875945
596.827	21.83632387
597.02	21.83134402
597.212	21.8202035
597.405	21.82564825
597.597	21.82870875
597.79	21.84272839
597.982	21.85317253
598.175	21.86029041
598.367	21.86365222
598.559	21.87139266
598.752	21.87860552
598.944	21.89455789
599.137	21.91213298
599.329	21.90624482
599.521	21.91258258
599.714	21.92301373
599.906	21.92288402
600.098	21.93027737
600.291	21.93080334
600.483	21.93165909
600.675	21.92963157
600.868	21.94012677
601.06	21.9447869
601.252	21.96136205
601.444	21.9577427
601.637	21.95621348
601.829	21.95418947
602.021	21.94967249
602.213	21.94856798
602.405	21.9385482
602.597	21.93317908
602.789	21.93678184
602.982	21.91690789
603.174	21.91418108
603.366	21.91486805
603.558	21.92356971
603.75	21.93250255
603.942	21.93803207
604.134	21.92644458
604.326	21.93293949
604.518	21.92747131
604.71	21.94321508
604.902	21.94030351
605.094	21.94270034
605.286	21.94404596
605.478	21.94024122
605.67	21.94456161
605.862	21.95123712
606.054	21.9589347
606.246	21.97653203
606.437	21.97675636
606.629	21.97029805
606.821	21.97348983
607.013	21.98874196
607.205	21.98912602
607.397	21.99114474
607.588	21.98289695
607.78	21.97747583
607.972	21.98345481
608.164	21.98860526
608.355	21.99259486
608.547	22.00859244
608.739	21.99428095
608.93	21.99902774
609.122	22.00131952
609.314	22.00129866
609.505	22.01306533
609.697	22.01304399
609.889	22.00761102
610.08	22.00318584
610.272	21.99055323
610.463	22.00124636
610.655	22.02225308
610.847	22.0280298
611.038	22.02588393
611.23	22.02902943
611.421	22.03611402
611.613	22.04418259
611.804	22.04397002
611.996	22.03854681
612.187	22.04318965
612.379	22.04324176
612.57	22.03604287
612.761	22.04882073
612.953	22.0467179
613.144	22.03990982
613.336	22.03134874
613.527	22.03521137
613.718	22.0308284
613.91	22.03273382
614.101	22.03546073
614.292	22.03538188
614.483	22.04417394
614.675	22.03669172
614.866	22.03767711
615.057	22.03053731
615.248	22.02069801
615.44	22.01161707
615.631	22.01262408
615.822	22.01899198
616.013	22.01820287
616.204	22.028565
616.396	22.03143509
616.587	22.03506332
616.778	22.0278592
616.969	22.02672886
617.16	22.03256064
617.351	22.03663551
617.542	22.03883807
617.733	22.03726758
617.924	22.03675445
618.115	22.03576464
618.306	22.03721871
618.497	22.01891999
618.688	22.02332513
618.879	22.03059502
619.07	22.05024091
619.261	22.06797039
619.452	22.06939009
619.643	22.0625069
619.834	22.05207272
620.025	22.04431156
620.216	22.04603734
620.407	22.04382938
620.597	22.04730926
620.788	22.04947189
620.979	22.06258437
621.17	22.06531627
621.361	22.0647667
621.551	22.05841179
621.742	22.05432158
621.933	22.06104869
622.124	22.07169027
622.314	22.07402174
622.505	22.09596922
622.696	22.1085925
622.886	22.11024552
623.077	22.09372116
623.268	22.08988698
623.458	22.10616921
623.649	22.11242629
623.84	22.12265406
624.03	22.13897151
624.221	22.13254738
624.411	22.13912475
624.602	22.14734564
624.792	22.14569827
624.983	22.14174051
625.173	22.14260889
625.364	22.15670917
625.554	22.14939159
625.745	22.16398305
625.935	22.16582804
626.126	22.15120855
626.316	22.15293159
626.507	22.14380846
626.697	22.1351075
626.887	22.12441427
627.078	22.12998239
627.268	22.13393194
627.458	22.12988833
627.649	22.12555177
627.839	22.12581123
628.029	22.12211958
628.22	22.12453514
628.41	22.12019674
628.6	22.1025384
628.79	22.11008738
628.981	22.10820813
629.171	22.11213418
629.361	22.1177441
629.551	22.12422069
629.741	22.12760386
629.932	22.13059917
630.122	22.15155542
630.312	22.14953311
630.502	22.15485974
630.692	22.14599731
630.882	22.14961981
631.072	22.15509683
631.262	22.14362439
631.452	22.13917034
631.642	22.15123016
631.832	22.15008076
632.022	22.14058762
632.212	22.13806938
632.402	22.13169545
632.592	22.14547048
632.782	22.14777948
632.972	22.1412765
633.162	22.14157178
633.352	22.14150004
633.542	22.1426657
633.732	22.13368457
633.922	22.12159186
634.111	22.12083551
634.301	22.12498396
634.491	22.10954142
634.681	22.11105458
634.871	22.12291432
635.06	22.11724177
635.25	22.11036355
635.44	22.11980401
635.63	22.11483915
635.819	22.11646217
636.009	22.12252187
636.199	22.12798447
636.388	22.1237571
636.578	22.12005323
636.768	22.12087747
636.957	22.12937562
637.147	22.11837351
637.337	22.12035529
637.526	22.12243459
637.716	22.12250048
637.905	22.12985614
638.095	22.11677683
638.284	22.11016164
638.474	22.11711453
638.663	22.12075818
638.853	22.11361781
639.042	22.11261991
639.232	22.12207929
639.421	22.1160238
639.611	22.11029158
639.8	22.09731596
639.99	22.08007295
640.179	22.08234216
640.368	22.09247049
640.558	22.08525974
640.747	22.08201619
640.936	22.07419633
641.126	22.07479084
641.315	22.05966715
641.504	22.06777593
641.694	22.07725258
641.883	22.07262257
642.072	22.07681369
642.261	22.07407555
642.451	22.09390026
642.64	22.09911973
642.829	22.09928495
643.018	22.10197153
643.207	22.11235171
643.397	22.10192536
643.586	22.11151325
643.775	22.12461811
643.964	22.13367307
644.153	22.12841489
644.342	22.12759101
644.531	22.13946084
644.72	22.14113362
644.909	22.14199793
645.098	22.14984492
645.287	22.14463616
645.476	22.13870977
645.665	22.12747994
645.854	22.1295365
646.043	22.12987854
646.232	22.143297
646.421	22.13149906
646.61	22.13345346
646.799	22.12517037
646.988	22.14006377
647.177	22.13634532
647.365	22.13944917
647.554	22.14724286
647.743	22.15229127
647.932	22.16271146
648.121	22.16645341
648.309	22.16042799
648.498	22.1595012
648.687	22.14976646
648.876	22.15284183
649.064	22.15673669
649.253	22.15837467
649.442	22.1515939
649.63	22.16244223
649.819	22.16040926
650.008	22.16037868
650.196	22.16516461
650.385	22.16544453
650.574	22.15487414
650.762	22.16491699
650.951	22.15478259
651.139	22.15222008
651.328	22.14366358
651.516	22.13026233
651.705	22.12574154
651.893	22.12147547
652.082	22.12803978
652.27	22.13890231
652.459	22.12654294
652.647	22.13577792
652.836	22.1310815
653.024	22.12654399
653.213	22.1219615
653.401	22.11831377
653.589	22.09736866
653.778	22.09922941
653.966	22.09435273
654.154	22.09213701
654.343	22.09270342
654.531	22.10441227
654.719	22.0970718
654.908	22.10158518
655.096	22.09404881
655.284	22.09936293
655.472	22.10364701
655.661	22.10342551
655.849	22.10319328
656.037	22.09183426
656.225	22.07755078
656.413	22.08220336
656.601	22.07407823
656.79	22.08010388
656.978	22.08664664
657.166	22.10144444
657.354	22.10080977
657.542	22.12535255
657.73	22.12009603
657.918	22.11916718
658.106	22.10221602
658.294	22.08458852
658.482	22.06229068
658.67	22.04989702
658.858	22.02649282
659.046	22.02607512
659.234	22.02058292
659.422	22.00500534
659.61	21.98695815
659.798	21.98303803
659.986	21.97815131
660.173	21.97736981
660.361	21.95715078
660.549	21.9562576
660.737	21.95413196
660.925	21.93763379
661.113	21.94074822
661.3	21.93886944
661.488	21.92116033
661.676	21.90679984
661.864	21.89235614
662.051	21.89395149
662.239	21.89354415
662.427	21.89151521
662.614	21.87793553
662.802	21.88319062
662.99	21.88470733
663.177	21.8973353
663.365	21.89580504
663.553	21.90864631
663.74	21.90559604
663.928	21.91792148
664.115	21.92945351
664.303	21.94645097
664.49	21.94355744
664.678	21.95143476
664.866	21.95977092
665.053	21.93962863
665.24	21.94410609
665.428	21.94515018
665.615	21.95447304
665.803	21.96335291
665.99	21.97981703
666.178	22.00556612
666.365	22.02100962
666.552	22.04672359
666.74	22.04408616
666.927	22.04184954
667.114	22.02918739
667.302	22.04070424
667.489	22.03857517
667.676	22.03172003
667.864	22.01905054
668.051	22.00590984
668.238	22.00692355
668.425	22.0152901
668.613	21.99488062
668.8	21.97643261
668.987	21.9823961
669.174	21.9915408
669.361	21.98079086
669.548	21.99710453
669.736	21.99942093
669.923	21.9826158
670.11	21.97575061
670.297	21.97097094
670.484	21.97126568
670.671	21.97196197
670.858	21.98021394
671.045	21.99372231
671.232	21.98368277
671.419	21.97907528
671.606	21.98650455
671.793	21.98456143
671.98	21.97896345
672.167	21.97715693
672.354	21.98234154
672.541	22.00282925
672.728	22.00444053
672.915	21.9950591
673.101	21.98328358
673.288	21.99442471
673.475	21.97515657
673.662	21.9770346
673.849	21.97015757
674.035	21.96227388
674.222	21.96153685
674.409	21.96624598
674.596	21.97018366
674.783	21.95852813
674.969	21.93814227
675.156	21.94456355
675.343	21.94913806
675.529	21.94715204
675.716	21.95457019
675.903	21.9662238
676.089	21.96996812
676.276	21.96542738
676.462	21.96066744
676.649	21.97782233
676.836	21.98970601
677.022	21.99654381
677.209	22.00217967
677.395	22.01477316
677.582	22.02493988
677.768	22.0365767
677.955	22.04731894
678.141	22.03184695
678.328	22.02732244
678.514	22.02952414
678.701	22.0405289
678.887	22.04143312
679.073	22.03807085
679.26	22.05578493
679.446	22.08268219
679.632	22.07045587
679.819	22.07861198
680.005	22.10724792
680.191	22.11798678
680.378	22.10881622
680.564	22.11909569
680.75	22.12875841
680.936	22.14481249
681.123	22.15038564
681.309	22.15820226
681.495	22.17144636
681.681	22.17745404
681.867	22.20363679
682.054	22.24127621
682.24	22.24438158
682.426	22.26697819
682.612	22.26829748
682.798	22.31104486
682.984	22.35135281
683.17	22.35082758
683.356	22.35387914
683.542	22.38806124
683.728	22.40622786
683.914	22.38176801
684.1	22.38164994
684.286	22.40833623
684.472	22.42277977
684.658	22.44587739
684.844	22.45781499
685.03	22.47268009
685.216	22.4903997
685.402	22.49798228
685.588	22.51396833
685.774	22.50851217
685.96	22.51927784
686.145	22.54384751
686.331	22.57678151
686.517	22.59209134
686.703	22.60245516
686.889	22.59529181
687.074	22.60306156
687.26	22.64565697
687.446	22.65218921
687.631	22.65887223
687.817	22.70192238
688.003	22.75940271
688.189	22.76587434
688.374	22.77359157
688.56	22.80570108
688.745	22.81374422
688.931	22.84054408
689.117	22.86956818
689.302	22.90086026
689.488	22.92844167
689.673	22.9608918
689.859	22.96972804
690.044	22.98856292
690.23	22.99644035
690.415	23.03164476
690.601	23.03692667
690.786	23.04457748
690.972	23.08086484
691.157	23.06927271
691.343	23.08242585
691.528	23.11796946
691.713	23.12784779
691.899	23.12183786
692.084	23.15373576
692.269	23.17793835
692.455	23.17025963
692.64	23.17765815
692.825	23.1983533
693.011	23.20938692
693.196	23.23079255
693.381	23.24558396
693.566	23.24326469
693.752	23.27439862
693.937	23.29575926
694.122	23.30238695
694.307	23.31823012
694.492	23.36166398
694.678	23.38492865
694.863	23.39494369
695.048	23.44690629
695.233	23.4883726
695.418	23.47825655
695.603	23.52398158
695.788	23.54694528
695.973	23.56893762
696.158	23.58279801
696.343	23.60343079
696.528	23.64279258
696.713	23.67472088
696.898	23.70813362
697.083	23.69480002
697.268	23.72761263
697.453	23.75906468
697.638	23.7957255
697.823	23.82850657
698.008	23.86516841
698.192	23.88843215
698.377	23.90312064
698.562	23.95998275
698.747	23.98058199
698.932	23.98048696
699.117	24.00689419
699.301	24.05658705
699.486	24.05384693
699.671	24.07854928
699.856	24.09952674
700.04	24.14424494
700.225	24.17987757
700.41	24.206417
700.594	24.22933971
700.779	24.23211603
700.964	24.27270174
701.148	24.29832325
701.333	24.32937822
701.517	24.35013693
701.702	24.3828486
701.887	24.40490921
702.071	24.42203208
702.256	24.45646611
702.44	24.44406509
702.625	24.49613879
702.809	24.52508547
702.994	24.53510775
703.178	24.58436488
703.362	24.61470103
703.547	24.63245707
703.731	24.66790295
703.916	24.69774973
704.1	24.72055622
704.284	24.73669897
704.469	24.75744921
704.653	24.80048692
704.837	24.84224098
705.022	24.87697445
705.206	24.89541492
705.39	24.90354248
705.575	24.91426058
705.759	24.93746899
705.943	24.96679444
706.127	24.99653501
706.311	25.05051561
706.496	25.06422811
706.68	25.08322697
706.864	25.12115848
707.048	25.12013039
707.232	25.12705437
707.416	25.16273662
707.6	25.17880541
707.785	25.20248696
707.969	25.22892085
708.153	25.26205977
708.337	25.27317396
708.521	25.31026454
708.705	25.32505466
708.889	25.33520912
709.073	25.37754971
709.257	25.43903392
709.441	25.48518094
709.624	25.5089903
709.808	25.55479155
709.992	25.58273961
710.176	25.60080646
710.36	25.64822409
710.544	25.67161111
710.728	25.69694322
710.912	25.75267547
711.095	25.81910286
711.279	25.84708266
711.463	25.90715363
711.647	25.93134426
711.83	25.98756728
712.014	26.01999004
712.198	26.06251477
712.382	26.09813699
712.565	26.13418723
712.749	26.18756496
712.933	26.20758178
713.116	26.23180616
713.3	26.28076435
713.483	26.34771524
713.667	26.38426306
713.851	26.41129851
714.034	26.4470072
714.218	26.4781445
714.401	26.54828298
714.585	26.60472031
714.768	26.62035926
714.952	26.66681922
715.135	26.7177757
715.319	26.74999501
715.502	26.79595298
715.686	26.82352598
715.869	26.88469296
716.052	26.93819607
716.236	26.97550974
716.419	27.03061441
716.602	27.05555572
716.786	27.12178548
716.969	27.16854837
717.152	27.1755442
717.336	27.18662544
717.519	27.2170428
717.702	27.26507511
717.885	27.3118857
718.069	27.34193279
718.252	27.37454476
718.435	27.40404898
718.618	27.44744408
718.801	27.46723969
718.985	27.49588566
719.168	27.51970198
719.351	27.54700832
719.534	27.58735443
719.717	27.61080972
719.9	27.62284287
720.083	27.63517786
720.266	27.65501674
720.449	27.67741019
720.632	27.69788989
720.815	27.7062919
720.998	27.73924823
721.181	27.77059372
721.364	27.7844888
721.547	27.82764843
721.73	27.85245633
721.913	27.86241879
722.096	27.85873932
722.279	27.86534595
722.461	27.88386209
722.644	27.9183826
722.827	27.92663478
723.01	27.95818898
723.193	27.97640922
723.376	27.98461132
723.558	27.99751413
723.741	28.01978439
723.924	28.04219351
724.107	28.06374245
724.289	28.09983384
724.472	28.10792873
724.655	28.1325641
724.837	28.148049
725.02	28.17005363
725.203	28.21237312
725.385	28.19257782
725.568	28.21314651
725.75	28.22086312
725.933	28.26286147
726.115	28.28496889
726.298	28.30985935
726.481	28.29995384
726.663	28.31886434
726.845	28.32366225
727.028	28.35746548
727.21	28.36080724
727.393	28.35666404
727.575	28.372881
727.758	28.38171229
727.94	28.41757143
728.122	28.42472703
728.305	28.44060916
728.487	28.44919406
728.67	28.45250979
728.852	28.45869525
729.034	28.45844626
729.216	28.46365025
729.399	28.4496932
729.581	28.47987512
729.763	28.47778839
729.945	28.49550964
730.128	28.50335441
730.31	28.52275235
730.492	28.54414487
730.674	28.5359235
730.856	28.53056815
731.039	28.5546288
731.221	28.59522964
731.403	28.61231967
731.585	28.61471537
731.767	28.58858331
731.949	28.56760391
732.131	28.57390619
732.313	28.58295541
732.495	28.60651605
732.677	28.61845836
732.859	28.62186768
733.041	28.62756518
733.223	28.67160704
733.405	28.67221515
733.587	28.66308358
733.769	28.67642954
733.951	28.66922338
734.132	28.65380232
734.314	28.66428409
734.496	28.69519632
734.678	28.70273538
734.86	28.70295423
735.042	28.69220342
735.223	28.7001582
735.405	28.71040181
735.587	28.72368591
735.769	28.73784427
735.95	28.73815515
736.132	28.74863687
736.314	28.75164919
736.495	28.75334925
736.677	28.76982813
736.859	28.79154132
737.04	28.77668128
737.222	28.78915179
737.403	28.80672127
737.585	28.81236654
737.767	28.82520787
737.948	28.86120437
738.13	28.86406701
738.311	28.86353822
738.493	28.87222191
738.674	28.87954635
738.856	28.89051384
739.037	28.89098427
739.219	28.8979871
739.4	28.90931366
739.581	28.94065226
739.763	28.95477332
739.944	28.95226242
740.125	28.96787213
740.307	28.98050798
740.488	28.99594054
740.669	29.00583103
740.851	29.02013927
741.032	29.04265399
741.213	29.05569116
741.395	29.06342034
741.576	29.06095829
741.757	29.05203752
741.938	29.05893733
742.119	29.07179755
742.301	29.07297052
742.482	29.08382916
742.663	29.10738842
742.844	29.11871462
743.025	29.13919324
743.206	29.15699364
743.387	29.16067111
743.568	29.1685442
743.749	29.18664609
743.93	29.17770802
744.111	29.16778443
744.292	29.17032259
744.473	29.16509908
744.654	29.17354423
744.835	29.20071968
745.016	29.20543124
745.197	29.20337241
745.378	29.22016485
745.559	29.22601635
745.74	29.25387947
745.921	29.27079964
746.102	29.29107632
746.282	29.30811855
746.463	29.3115785
746.644	29.3048681
746.825	29.31203115
747.006	29.31758717
747.186	29.32062628
747.367	29.32261093
747.548	29.33004754
747.728	29.3483172
747.909	29.36089558
748.09	29.36883663
748.27	29.38847019
748.451	29.38950071
748.632	29.37219121
748.812	29.36941468
748.993	29.39019514
749.173	29.40074883
749.354	29.39424159
749.535	29.37844122
749.715	29.35328601
749.896	29.36641878
750.076	29.35807033
750.257	29.37453709
750.437	29.40344122
750.618	29.41571697
750.798	29.42091662
750.978	29.44836892
751.159	29.4789562
751.339	29.5039539
751.52	29.5392299
751.7	29.5670609
751.88	29.57065325
752.061	29.61401138
752.241	29.65911832
752.421	29.66327784
752.601	29.68851078
752.782	29.71375773
752.962	29.75885351
753.142	29.81335292
753.322	29.84259626
753.503	29.90869551
753.683	29.93065127
753.863	29.98782335
754.043	30.01095287
754.223	30.06080047
754.403	30.10192998
754.583	30.15082303
754.764	30.17996123
754.944	30.21024411
755.124	30.22533859
755.304	30.24635897
755.484	30.31304011
755.664	30.36129786
755.844	30.3727069
756.024	30.39232493
756.204	30.43560531
756.384	30.51000034
756.564	30.53874569
756.743	30.56415956
756.923	30.59829821
757.103	30.63991129
757.283	30.66475599
757.463	30.70043771
757.643	30.71476173
757.823	30.71686917
758.002	30.72083165
758.182	30.74649216
758.362	30.75685245
758.542	30.73991663
758.721	30.76064936
758.901	30.78566415
759.081	30.76189373
759.261	30.72225672
759.44	30.72740026
759.62	30.74745158
759.8	30.73963909
759.979	30.74815196
760.159	30.73036745
760.338	30.71374573
760.518	30.68561587
760.698	30.67818508
760.877	30.65192289
761.057	30.61671437
761.236	30.59708889
761.416	30.54531217
761.595	30.54091887
761.775	30.52992106
761.954	30.50409952
762.133	30.47073881
762.313	30.4630474
762.492	30.42313807
762.672	30.38706368
762.851	30.3801007
763.03	30.35796191
763.21	30.31937785
763.389	30.27506211
763.568	30.27593656
763.748	30.25033359
763.927	30.21933678
764.106	30.19104151
764.286	30.15400027
764.465	30.13871343
764.644	30.12727497
764.823	30.09384959
765.002	30.05765934
765.182	30.05398
765.361	30.02441397
765.54	29.99509845
765.719	29.97050931
765.898	29.95535009
766.077	29.93065903
766.256	29.9165135
766.435	29.90468755
766.614	29.87725882
766.793	29.85993622
766.972	29.87281968
767.151	29.85275443
767.33	29.83118827
767.509	29.80485329
767.688	29.78710959
767.867	29.78133579
768.046	29.80788765
768.225	29.8091724
768.404	29.82665524
768.583	29.8566969
768.762	29.86704895
768.94	29.87630283
769.119	29.88617414
769.298	29.89788226
769.477	29.89274421
769.656	29.89766215
769.834	29.92455352
770.013	29.92689864
770.192	29.94722625
770.37	29.96669524
770.549	30.00893047
770.728	30.01243416
770.906	30.04340924
771.085	30.0735244
771.264	30.11595012
771.442	30.16931125
771.621	30.20351798
771.799	30.21681115
771.978	30.24267665
772.157	30.24971972
772.335	30.28027809
772.514	30.31056265
772.692	30.33126596
772.871	30.35174212
773.049	30.36613423
773.228	30.38202781
773.406	30.41705445
773.584	30.43493396
773.763	30.47517525
773.941	30.55321624
774.119	30.5988545
774.298	30.63883557
774.476	30.68204841
774.655	30.70893997
774.833	30.73480548
775.011	30.7647706
775.189	30.78971683
775.368	30.80564589
775.546	30.84646633
775.724	30.87291048
775.902	30.90172724
776.08	30.89204406
776.259	30.93489296
776.437	30.99107635
776.615	31.0640725
776.793	31.11562536
776.971	31.19143259
777.149	31.22908616
777.327	31.30696977
777.505	31.34981179
777.683	31.36126387
777.861	31.40840117
778.04	31.43054453
778.218	31.47900803
778.395	31.54757755
778.573	31.57977489
778.751	31.63818335
778.929	31.69332584
779.107	31.79260426
779.285	31.8650106
779.463	31.93680945
779.641	32.00688718
779.819	32.10070823
779.997	32.16691654
780.174	32.24774432
780.352	32.27008333
780.53	32.34123465
780.708	32.40321739
780.886	32.50698018
781.063	32.56042469
781.241	32.62844299
781.419	32.67479105
781.596	32.76003759
781.774	32.84182652
781.952	32.94388071
782.129	33.03291867
782.307	33.13385356
782.485	33.19082039
782.662	33.25894743
782.84	33.30385378
783.017	33.34257451
783.195	33.42304778
783.372	33.50956921
783.55	33.57475077
783.727	33.6587407
783.905	33.68854038
784.082	33.80013977
784.26	33.90911451
784.437	34.0166236
784.615	34.10316245
784.792	34.206377
784.969	34.30579391
785.147	34.39496343
785.324	34.49534335
785.501	34.56446505
785.679	34.63030801
785.856	34.71789744
786.033	34.7846936
786.211	34.9178291
786.388	35.02720604
786.565	35.13276145
786.742	35.24898675
786.92	35.33929496
787.097	35.45327509
787.274	35.56384533
787.451	35.60173824
787.628	35.71454147
787.805	35.80608607
787.982	35.89647608
788.16	35.96975115
788.337	36.02940341
788.514	36.09694751
788.691	36.17742337
788.868	36.24842944
789.045	36.32005393
789.222	36.44142789
789.399	36.51847194
789.576	36.56595102
789.753	36.64860942
789.93	36.7259503
790.106	36.78015374
790.283	36.83666263
790.46	36.90502792
790.637	37.01104778
790.814	37.07578925
790.991	37.18931328
791.168	37.31982936
791.344	37.43342611
791.521	37.53738092
791.698	37.59142118
791.875	37.68633283
792.051	37.78287456
792.228	37.82774455
792.405	37.92326375
792.581	38.03036511
792.758	38.0858132
792.935	38.16701167
793.111	38.24683552
793.288	38.33288765
793.465	38.41452612
793.641	38.45155417
793.818	38.53924428
793.994	38.68627484
794.171	38.76609726
794.347	38.82283548
794.524	38.87852813
794.7	38.89796791
794.877	38.99721354
795.053	39.0842768
795.23	39.16163194
795.406	39.26796738
795.583	39.2944412
795.759	39.38998884
795.935	39.54596998
796.112	39.60904166
796.288	39.69774759
796.464	39.84352517
796.641	39.91292464
796.817	40.02360965
796.993	40.10461357
797.169	40.23338515
797.346	40.34656628
797.522	40.44140561
797.698	40.52635753
797.874	40.64190015
798.051	40.72192525
798.227	40.87430081
798.403	41.00316324
798.579	41.09574717
798.755	41.15868182
798.931	41.21107157
799.107	41.26710786
799.283	41.42975997
799.459	41.45882643
799.635	41.55588679
799.811	41.651205
799.987	41.74331391
800.163	41.76874383
800.339	41.90069567
800.515	41.99687829
800.691	42.10568936
800.867	42.14907645
801.043	42.27629683
801.219	42.39515852
801.395	42.3972683
801.571	42.43123103
801.746	42.53707725
801.922	42.56346266
802.098	42.63616352
802.274	42.71202797
802.45	42.81717844
802.625	42.92142168
802.801	43.02291707
802.977	43.09618282
803.152	43.26678461
803.328	43.32027015
803.504	43.49681665
803.679	43.61386554
803.855	43.70940507
804.031	43.79339616
804.206	43.91805136
804.382	44.08304222
804.557	44.28730654
804.733	44.36401441
804.909	44.46540263
805.084	44.67053264
805.26	44.9033986
805.435	45.04052845
805.61	45.21377935
805.786	45.3828304
805.961	45.5824598
806.137	45.82336302
806.312	46.03087092
806.488	46.19588165
806.663	46.40937232
806.838	46.62962806
807.014	46.92037228
807.189	47.06443343
807.364	47.33616937
807.54	47.65160128
807.715	47.94683548
807.89	48.14028762
808.065	48.37069207
808.241	48.57683822
808.416	48.84531579
808.591	49.09928655
808.766	49.33697645
808.941	49.58479542
809.116	49.81278628
809.291	50.01429034
809.467	50.31261161
809.642	50.54273897
809.817	50.66874518
809.992	50.97060773
810.167	51.20488464
810.342	51.43877205
810.517	51.60238678
810.692	51.82306121
810.867	52.0734642
811.042	52.30314113
811.217	52.49596884
811.392	52.61804816
811.567	52.88509572
811.741	53.06124783
811.916	53.23828174
812.091	53.3844142
812.266	53.5849485
812.441	53.74834021
812.616	53.92258067
812.79	54.09469556
812.965	54.26298979
813.14	54.3359569
813.315	54.37839387
813.489	54.39530155
813.664	54.45462694
813.839	54.58756354
814.013	54.75086274
814.188	54.89839976
814.363	54.96768711
814.537	55.00325916
814.712	54.97604299
814.887	54.94769268
815.061	55.01592791
815.236	54.98459301
815.41	55.01129273
815.585	55.22634399
815.759	55.3057883
815.934	55.30631267
816.108	55.3785777
816.283	55.36461117
816.457	55.39911794
816.631	55.49127694
816.806	55.52432461
816.98	55.60499574
817.155	55.81056532
817.329	55.81204012
817.503	55.93434526
817.678	55.94335382
817.852	56.00589491
818.026	55.93231271
818.201	56.02634073
818.375	56.11730543
818.549	56.17403131
818.723	56.32473091
818.897	56.33506934
819.072	56.28887909
819.246	56.15530632
819.42	56.20494554
819.594	56.29022024
819.768	56.26333477
819.942	56.33926237
820.116	56.4243672
820.29	56.47773022
820.465	56.57633259
820.639	56.65025198
820.813	56.65276579
820.987	56.6662964
821.161	56.66803866
821.335	56.70330727
821.509	56.68650773
821.682	56.83522316
821.856	56.84701816
822.03	56.86126464
822.204	57.02355034
822.378	57.05015798
822.552	57.21506365
822.726	57.45272088
822.9	57.49620435
823.073	57.48686587
823.247	57.6102076
823.421	57.81544074
823.595	57.98843155
823.768	58.12003444
823.942	58.244633
824.116	58.42530492
824.289	58.56917434
824.463	58.67373785
824.637	58.8772647
824.81	58.92452579
824.984	59.05233196
825.158	59.21614252
825.331	59.22132109
825.505	59.36861475
825.678	59.5519816
825.852	59.63643762
826.025	59.63918723
826.199	59.66534467
826.372	59.72831888
826.546	59.97117314
826.719	60.13206076
826.893	60.18529764
827.066	60.20337673
827.24	60.15511428
827.413	60.20903671
827.586	60.28633442
827.76	60.30126411
827.933	60.2912229
828.106	60.47960912
828.28	60.54472523
828.453	60.50897775
828.626	60.45876408
828.799	60.50631681
828.973	60.69249418
829.146	60.86654691
829.319	60.89604928
829.492	60.97506253
829.665	61.08636282
829.839	61.25993273
830.012	61.32955065
830.185	61.31911884
830.358	61.4017191
830.531	61.40722279
830.704	61.48464821
830.877	61.55698839
831.05	61.53288726
831.223	61.61131266
831.396	61.62138402
831.569	61.82057247
831.742	61.81556534
831.915	61.73787653
832.088	61.92966196
832.261	62.01511974
832.434	62.023007
832.607	61.99178946
832.779	62.01258228
832.952	61.98858672
833.125	62.05418535
833.298	62.09780742
833.471	62.01076644
833.643	62.16353754
833.816	62.11834805
833.989	62.10820042
834.162	62.25699879
834.334	62.37650367
834.507	62.53136191
834.68	62.65973494
834.852	62.64932465
835.025	62.74249737
835.198	62.73290002
835.37	62.84563478
835.543	63.10049706
835.715	63.26875427
835.888	63.40591625
836.061	63.44898925
836.233	63.54097457
836.406	63.57787605
836.578	63.76048494
836.751	63.83530217
836.923	64.04382702
837.095	64.31874229
837.268	64.32899294
837.44	64.58025082
837.613	64.70216851
837.785	64.79136754
837.957	64.80668264
838.13	64.88219438
838.302	65.16324394
838.474	65.42511604
838.647	65.60700218
838.819	65.68426352
838.991	65.81213578
839.163	65.79429221
839.336	66.00991991
839.508	66.17264812
839.68	66.3036673
839.852	66.50160254
840.024	66.56479059
840.196	66.61784991
840.368	66.64917074
840.541	66.60223045
840.713	66.65814375
840.885	66.86648124
841.057	67.04272111
841.229	67.37887158
841.401	67.55784238
841.573	67.7133437
841.745	67.82871852
841.917	67.93827599
842.089	68.02091088
842.261	68.17181977
842.432	68.529132
842.604	68.76651535
842.776	69.15340115
842.948	69.27918917
843.12	69.41218328
843.292	69.57618643
843.464	69.8108784
843.635	70.11876376
843.807	70.50841626
843.979	70.90589902
844.151	71.2772454
844.322	71.56629619
844.494	71.78625052
844.666	71.84724164
844.837	71.86317678
845.009	72.28671987
845.181	72.83263728
845.352	73.14069228
845.524	73.3125734
845.695	73.38344281
845.867	73.41210166
846.039	73.6148895
846.21	73.84379383
846.382	74.05655366
846.553	74.29158123
846.725	74.69165142
846.896	75.12455797
847.068	75.297882
847.239	75.52799911
847.41	75.66205977
847.582	75.89889764
847.753	76.04431103
847.925	76.17130635
848.096	76.19670592
848.267	76.42680623
848.439	76.7885797
848.61	76.6559513
848.781	76.53949571
848.952	76.71548173
849.124	76.97235446
849.295	77.32151956
849.466	77.68950802
849.637	77.76086721
849.808	77.77713287
849.98	77.76644271
850.151	77.61812436
850.322	77.74401231
850.493	77.83892103
850.664	78.06339755
850.835	77.99925537
851.006	77.86484498
851.177	77.88085729
851.348	78.12951751
851.519	78.25632215
851.69	78.37124995
851.861	78.65470885
852.032	78.62863705
852.203	79.06072666
852.374	79.04972499
852.545	78.8628615
852.716	78.65335439
852.887	78.57375017
853.057	78.70918865
853.228	78.96671737
853.399	79.193279
853.57	79.26830214
853.741	79.87811561
853.911	79.70806309
854.082	79.85663111
854.253	79.99928056
854.424	80.42956825
854.594	80.70245922
854.765	80.93199508
854.936	80.88077203
855.106	80.72861976
855.277	81.11028128
855.447	81.26250212
855.618	81.74250311
855.789	81.93347783
855.959	82.33994339
856.13	82.54487773
856.3	82.97506638
856.471	83.52988821
856.641	83.66038582
856.812	83.68253997
856.982	83.622025
857.153	84.35025381
857.323	84.49206083
857.493	85.11321823
857.664	85.38813872
857.834	85.77323062
858.004	85.95512733
858.175	86.53880349
858.345	86.26287684
858.515	86.73351544
858.686	87.57182737
858.856	87.588108
859.026	88.01987927
859.196	88.46312254
859.367	88.83801688
859.537	89.36884803
859.707	90.24801282
859.877	90.48632726
860.047	90.64460635
860.217	91.29044352
860.387	91.47373363
860.558	92.0318287
860.728	92.07314224
860.898	91.87703822
861.068	92.14737911
861.238	92.61413914
861.408	92.62571779
861.578	93.04633764
861.748	93.27999513
861.918	94.55491258
862.088	94.585928
862.257	94.28444589
862.427	94.8406495
862.597	94.96427033
862.767	94.67771944
862.937	94.88285355
863.107	94.89744776
863.277	95.19268122
863.446	95.51705532
863.616	95.65059637
863.786	95.93507288
863.956	96.29532211
864.125	97.08881265
864.295	97.42258827
864.465	98.53867596
864.634	99.11814705
864.804	99.67127781
864.974	99.88704061
865.143	100.67264247
865.313	101.2867701
865.482	101.02676206
865.652	101.48080248
865.822	102.69464227
865.991	102.99676679
866.161	103.51763804
866.33	104.58077424
866.5	104.17580524
866.669	104.95556476
866.838	105.94074625
867.008	106.43354943
867.177	107.01401654
867.347	107.08641113
867.516	107.71416597
867.685	107.7871068
867.855	108.01276596
868.024	107.97025447
868.193	108.05403438
868.363	107.63656924
868.532	109.13371497
868.701	108.97159839
868.87	108.76679514
869.04	110.15810638
869.209	111.41941087
869.378	111.9282754
869.547	112.70432738
869.716	112.92037256
869.885	112.89583653
870.055	113.96122685
870.224	113.76032097
870.393	113.60705573
870.562	114.55707351
870.731	115.35963839
870.9	116.78589933
871.069	118.28316049
871.238	119.50379964
871.407	120.93843037
871.576	121.80708513
871.745	122.47734457
871.914	124.49330908
872.083	125.12550201
872.251	126.04828042
872.42	126.75331317
872.589	126.56116818
872.758	125.88678821
872.927	126.69006406
873.096	126.99443202
873.264	128.59270376
873.433	129.09440559
873.602	130.00448198
873.771	132.14625899
873.939	131.9544651
874.108	132.45426095
874.277	134.53241804
874.445	135.39424311
874.614	135.04653235
874.783	135.43319858
874.951	134.95220126
875.12	135.78230777
875.288	137.06782423
875.457	136.97924615
875.625	136.91681225
875.794	136.80663758
875.962	138.6026511
876.131	139.76636748
876.299	141.18015903
876.468	142.02967343
876.636	143.68280311
876.805	144.18075785
876.973	145.70737092
877.141	146.39466803
877.31	144.7221905
877.478	145.23954527
877.647	147.27749156
877.815	147.80329729
877.983	149.0495968
878.151	150.05350373
878.32	150.39758074
878.488	151.37715132
878.656	152.39664002
878.824	153.15214654
878.992	156.0109377
879.161	157.3286394
879.329	158.8946823
879.497	160.45018717
879.665	162.36217561
879.833	162.25703753
880.001	164.45678761
880.169	164.81601806
880.337	166.75920817
880.505	168.88714186
880.673	170.59399245
880.841	173.90903836
881.009	178.07020761
881.177	177.92903986
881.345	179.2820686
881.513	179.23085552
881.681	181.44878346
881.849	182.88443652
882.017	182.57821553
882.185	182.11603963
882.352	183.91051967
882.52	180.91725338
882.688	184.39281642
882.856	186.86870771
883.024	186.09870108
883.191	183.71317512
883.359	188.11402768
883.527	187.20213123
883.694	189.23619917
883.862	189.00262801
884.03	189.24139997
884.197	190.49682139
884.365	192.76888576
884.533	194.75294853
884.7	194.71433689
884.868	193.70087531
885.035	194.16433029
885.203	194.91833438
885.37	195.64915602
885.538	199.79412267
885.705	203.64830555
885.873	202.1917623
886.04	205.42702792
886.208	202.22315981
886.375	201.20819999
886.542	203.50870572
886.71	209.62216625
886.877	208.28634655
